Time,Gx,Gy,Gz,Ax,Ay,Az
2019-01-28 22:05:48:548,0.056946,0.088806,-0.644699,0.000000,0.000000,0.000000
2019-01-28 22:05:48:548,0.056946,0.088806,-0.644699,2.755707,-0.851822,10.816101
2019-01-28 22:05:48:548,0.056946,0.088806,-0.644699,0.051819,0.092148,11.882095
2019-01-28 22:05:48:548,0.056946,0.088806,-0.644699,-3.946594,1.544601,12.800949
2019-01-28 22:05:48:548,0.056946,0.088806,-0.644699,-4.323471,2.443100,11.770844
2019-01-28 22:05:48:548,0.056946,0.088806,-0.644699,-2.851883,2.695541,9.529953
2019-01-28 22:05:48:548,0.056946,0.088806,-0.644699,-2.017990,2.573502,7.969833
2019-01-28 22:05:48:548,0.056946,0.088806,-0.644699,-1.398239,2.232529,7.265152
2019-01-28 22:05:48:548,0.056946,0.088806,-0.644699,-0.539215,1.698929,8.490280
2019-01-28 22:05:48:548,0.056946,0.088806,-0.644699,-0.144394,1.301712,8.658966
2019-01-28 22:05:48:548,0.056946,0.088806,-0.644699,-0.643311,1.223953,8.229462
2019-01-28 22:05:49:549,0.056946,0.088806,-0.644699,-2.507309,1.294540,8.931763
2019-01-28 22:05:49:549,0.056946,0.088806,-0.644699,-1.718872,1.452469,10.421295
2019-01-28 22:05:49:549,0.056946,0.088806,-0.644699,-0.402817,1.558945,10.118591
2019-01-28 22:05:49:549,0.056946,0.088806,-0.644699,0.760101,1.509903,8.556091
2019-01-28 22:05:49:549,0.056946,0.088806,-0.644699,1.235062,1.444092,9.415100
2019-01-28 22:05:49:549,0.056946,0.088806,-0.644699,0.687103,1.098328,11.536346
2019-01-28 22:05:49:549,0.056946,0.088806,-0.644699,0.951523,0.882980,11.928772
2019-01-28 22:05:49:549,0.056946,0.088806,-0.644699,0.310242,1.106705,11.192978
2019-01-28 22:05:49:549,0.056946,0.088806,-0.644699,-1.123062,1.395035,10.314804
2019-01-28 22:05:49:549,-0.312012,-0.156204,-0.062622,-1.123062,1.395035,10.314804
2019-01-28 22:05:49:549,-0.312012,-0.156204,-0.062622,-1.347992,1.280182,10.601944
2019-01-28 22:05:49:549,-0.312012,-0.156204,-0.062622,-0.332230,0.616180,9.997757
2019-01-28 22:05:49:549,-0.312012,-0.156204,-0.062622,0.683533,0.577896,9.224884
2019-01-28 22:05:49:549,-0.312012,-0.156204,-0.062622,0.555511,0.781281,9.087280
2019-01-28 22:05:49:549,-0.312012,-0.156204,-0.062622,-0.103729,1.250275,8.539337
2019-01-28 22:05:49:549,-0.312012,-0.156204,-0.062622,-0.679199,1.552963,8.588379
2019-01-28 22:05:49:549,-0.312012,-0.156204,-0.062622,-0.719879,1.353165,9.212921
2019-01-28 22:05:49:549,-0.312012,-0.156204,-0.062622,-0.152786,0.996628,10.154495
2019-01-28 22:05:49:549,-0.312012,-0.156204,-0.062622,0.621307,0.845886,10.342331
2019-01-28 22:05:49:549,-0.312012,-0.156204,-0.062622,0.568665,0.881790,10.511017
2019-01-28 22:05:49:549,0.012482,-0.083023,0.005798,0.568665,0.881790,10.511017
2019-01-28 22:05:49:549,0.012482,-0.083023,0.005798,0.340149,1.043304,10.361465
2019-01-28 22:05:49:549,0.012482,-0.083023,0.005798,-0.124054,1.142609,9.760864
2019-01-28 22:05:49:549,0.012482,-0.083023,0.005798,-0.053482,1.223953,8.910217
2019-01-28 22:05:49:549,0.012482,-0.083023,0.005798,0.323410,1.171310,9.631653
2019-01-28 22:05:49:549,0.012482,-0.083023,0.005798,1.353516,1.514679,9.523972
2019-01-28 22:05:49:549,0.012482,-0.083023,0.005798,-0.258057,1.810196,8.570435
2019-01-28 22:05:49:549,0.012482,-0.083023,0.005798,0.207352,1.817383,8.734344
2019-01-28 22:05:49:549,0.012482,-0.083023,0.005798,-0.079788,1.411789,9.239243
2019-01-28 22:05:49:549,0.012482,-0.083023,0.005798,-0.540421,0.562347,9.891281
2019-01-28 22:05:49:549,-0.096802,-0.138916,0.085022,-0.540421,0.562347,9.891281
2019-01-28 22:05:49:549,-0.096802,-0.138916,0.085022,1.091492,0.088562,11.030258
2019-01-28 22:05:49:549,-0.096802,-0.138916,0.085022,0.332977,0.629333,10.776627
2019-01-28 22:05:49:549,-0.096802,-0.138916,0.085022,0.118820,1.222763,9.860168
2019-01-28 22:05:49:549,-0.096802,-0.138916,0.085022,-0.132431,1.399826,9.863754
2019-01-28 22:05:49:549,-0.096802,-0.138916,0.085022,0.030289,1.018173,10.454788
2019-01-28 22:05:49:549,-0.096802,-0.138916,0.085022,0.944336,0.814789,10.640228
2019-01-28 22:05:49:549,-0.096802,-0.138916,0.085022,0.932373,0.871017,9.849411
2019-01-28 22:05:49:549,-0.096802,-0.138916,0.085022,0.527985,0.829147,9.544312
2019-01-28 22:05:49:549,-0.096802,-0.138916,0.085022,0.195389,0.770508,10.075531
2019-01-28 22:05:49:549,-0.096802,-0.138916,0.085022,-0.567932,1.152176,10.561264
2019-01-28 22:05:49:549,0.118637,0.017029,-0.050949,-0.567932,1.152176,10.561264
2019-01-28 22:05:49:549,0.118637,0.017029,-0.050949,0.334167,1.623566,10.141327
2019-01-28 22:05:49:549,0.118637,0.017029,-0.050949,-0.479401,1.836517,10.117401
2019-01-28 22:05:49:549,0.118637,0.017029,-0.050949,0.133179,1.251465,10.202347
2019-01-28 22:05:49:549,0.118637,0.017029,-0.050949,0.761292,0.845886,9.866150
2019-01-28 22:05:49:549,0.118637,0.017029,-0.050949,0.986206,0.707108,9.294266
2019-01-28 22:05:49:549,0.118637,0.017029,-0.050949,0.849823,0.872208,8.491470
2019-01-28 22:05:49:549,0.118637,0.017029,-0.050949,1.114227,0.967926,8.424484
2019-01-28 22:05:49:549,0.118637,0.017029,-0.050949,0.395187,0.999023,8.262970
2019-01-28 22:05:49:549,0.118637,0.017029,-0.050949,-0.141998,1.085175,8.807327
2019-01-28 22:05:49:549,0.097748,0.092773,-0.065857,-0.141998,1.085175,8.807327
2019-01-28 22:05:49:549,0.097748,0.092773,-0.065857,-0.121674,1.334030,9.314606
2019-01-28 22:05:49:549,0.097748,0.092773,-0.065857,-0.238922,1.578094,8.843216
2019-01-28 22:05:49:549,0.097748,0.092773,-0.065857,-0.173111,1.592453,8.943726
2019-01-28 22:05:49:549,0.097748,0.092773,-0.065857,0.009949,1.007401,9.964249
2019-01-28 22:05:49:549,0.097748,0.092773,-0.065857,0.255203,0.744202,10.683304
2019-01-28 22:05:49:549,0.097748,0.092773,-0.065857,0.561493,0.890152,10.246613
2019-01-28 22:05:49:549,0.097748,0.092773,-0.065857,0.685913,1.067215,9.744125
2019-01-28 22:05:49:549,0.097748,0.092773,-0.065857,0.604568,1.361542,9.477325
2019-01-28 22:05:49:549,0.097748,0.092773,-0.065857,0.359299,1.490753,9.470139
2019-01-28 22:05:49:549,0.097748,0.092773,-0.065857,-0.375305,1.013382,9.490479
2019-01-28 22:05:50:550,-0.119522,-0.073746,0.140915,-0.375305,1.013382,9.490479
2019-01-28 22:05:50:550,-0.119522,-0.073746,0.140915,-0.043900,1.177292,9.831451
2019-01-28 22:05:50:550,-0.119522,-0.073746,0.140915,0.761292,0.496536,10.051605
2019-01-28 22:05:50:550,-0.119522,-0.073746,0.140915,1.170456,0.241699,10.391373
2019-01-28 22:05:50:550,-0.119522,-0.073746,0.140915,1.078339,0.229736,10.826874
2019-01-28 22:05:50:550,-0.119522,-0.073746,0.140915,0.388016,0.789658,10.223877
2019-01-28 22:05:50:550,-0.119522,-0.073746,0.140915,-0.602631,1.215576,9.051392
2019-01-28 22:05:50:550,-0.119522,-0.073746,0.140915,-1.010605,1.342407,8.310822
2019-01-28 22:05:50:550,-0.119522,-0.073746,0.140915,-0.664841,1.305313,7.853790
2019-01-28 22:05:50:550,-0.119522,-0.073746,0.140915,-0.460251,0.948776,7.921982
2019-01-28 22:05:50:550,-0.162888,0.117020,0.013672,-0.460251,0.948776,7.921982
2019-01-28 22:05:50:550,-0.162888,0.117020,0.013672,-0.168320,0.549179,8.633850
2019-01-28 22:05:50:550,-0.162888,0.117020,0.013672,-0.305908,0.074203,9.593369
2019-01-28 22:05:50:550,-0.162888,0.117020,0.013672,-0.055862,-0.154327,10.197556
2019-01-28 22:05:50:550,-0.162888,0.117020,0.013672,0.120010,-0.330185,10.689285
2019-01-28 22:05:50:550,-0.162888,0.117020,0.013672,0.239655,-0.220123,10.783798
2019-01-28 22:05:50:550,-0.162888,0.117020,0.013672,0.261185,0.129242,10.628265
2019-01-28 22:05:50:550,-0.162888,0.117020,0.013672,0.220520,0.355362,10.463165
2019-01-28 22:05:50:550,-0.162888,0.117020,0.013672,0.517227,0.599426,10.756287
2019-01-28 22:05:50:550,-0.162888,0.117020,0.013672,0.410736,0.533630,10.999161
2019-01-28 22:05:50:550,-0.162888,0.117020,0.013672,0.517212,0.491745,10.744324
2019-01-28 22:05:50:550,0.074051,0.078354,-0.023392,0.517212,0.491745,10.744324
2019-01-28 22:05:50:550,0.074051,0.078354,-0.023392,0.232483,0.461838,10.545715
2019-01-28 22:05:50:550,0.074051,0.078354,-0.023392,-0.125259,0.569519,10.069534
2019-01-28 22:05:50:550,0.074051,0.078354,-0.023392,-0.459061,0.467819,9.259567
2019-01-28 22:05:50:550,0.074051,0.078354,-0.023392,-0.209000,0.370911,8.408920
2019-01-28 22:05:50:550,0.074051,0.078354,-0.023392,-0.104919,0.336212,8.346710
2019-01-28 22:05:50:550,0.074051,0.078354,-0.023392,-0.140808,0.786072,8.674530
2019-01-28 22:05:50:550,0.074051,0.078354,-0.023392,-0.189865,1.206009,9.245209
2019-01-28 22:05:50:550,0.074051,0.078354,-0.023392,-0.212601,1.292145,9.535950
2019-01-28 22:05:50:550,0.074051,0.078354,-0.023392,-0.094162,0.869812,10.312408
2019-01-28 22:05:50:550,0.072342,0.024658,-0.061142,-0.094162,0.869812,10.312408
2019-01-28 22:05:50:550,0.072342,0.024658,-0.061142,0.727783,0.163925,11.713409
2019-01-28 22:05:50:550,0.072342,0.024658,-0.061142,0.892899,0.107697,11.153488
2019-01-28 22:05:50:550,0.072342,0.024658,-0.061142,0.557907,1.003815,10.375824
2019-01-28 22:05:50:550,0.072342,0.024658,-0.061142,0.182220,1.584076,10.295654
2019-01-28 22:05:50:550,0.072342,0.024658,-0.061142,0.011139,1.730042,9.500046
2019-01-28 22:05:50:550,0.072342,0.024658,-0.061142,-0.396835,1.500336,9.099258
2019-01-28 22:05:50:550,0.072342,0.024658,-0.061142,-0.161148,0.867432,9.436646
2019-01-28 22:05:50:550,0.072342,0.024658,-0.061142,0.603363,0.435516,9.823074
2019-01-28 22:05:50:550,0.072342,0.024658,-0.061142,0.571060,0.418762,9.869751
2019-01-28 22:05:50:550,0.072342,0.024658,-0.061142,0.175049,0.721466,9.729767
2019-01-28 22:05:50:550,0.019684,-0.025909,-0.059555,0.175049,0.721466,9.729767
2019-01-28 22:05:50:550,0.019684,-0.025909,-0.059555,-0.045105,1.237122,9.437836
2019-01-28 22:05:50:550,0.019684,-0.025909,-0.059555,-0.127655,1.641495,8.973633
2019-01-28 22:05:50:550,0.019684,-0.025909,-0.059555,-0.463837,1.688171,9.387589
2019-01-28 22:05:50:550,0.019684,-0.025909,-0.059555,-0.247299,1.529037,10.240631
2019-01-28 22:05:50:550,0.019684,-0.025909,-0.059555,0.096085,1.051682,10.461975
2019-01-28 22:05:50:550,0.019684,-0.025909,-0.059555,0.256409,0.748978,10.283707
2019-01-28 22:05:50:550,0.019684,-0.025909,-0.059555,0.159485,0.902115,10.100647
2019-01-28 22:05:50:550,0.019684,-0.025909,-0.059555,-0.159958,1.465622,9.590973
2019-01-28 22:05:50:550,0.019684,-0.025909,-0.059555,-0.437531,1.890350,8.820480
2019-01-28 22:05:51:551,0.092560,0.090881,-0.126694,-0.437531,1.890350,8.820480
2019-01-28 22:05:51:551,0.092560,0.090881,-0.126694,-0.237717,1.720459,8.534546
2019-01-28 22:05:51:551,0.092560,0.090881,-0.126694,0.291107,1.247879,9.027466
2019-01-28 22:05:51:551,0.092560,0.090881,-0.126694,0.545944,1.055267,9.294266
2019-01-28 22:05:51:551,0.092560,0.090881,-0.126694,0.867767,1.155762,9.726166
2019-01-28 22:05:51:551,0.092560,0.090881,-0.126694,0.778046,1.167725,9.646011
2019-01-28 22:05:51:551,0.092560,0.090881,-0.126694,0.348526,1.252670,8.899460
2019-01-28 22:05:51:551,0.092560,0.090881,-0.126694,-0.137222,1.616379,8.797760
2019-01-28 22:05:51:551,0.092560,0.090881,-0.126694,-0.721069,1.849670,8.937744
2019-01-28 22:05:51:551,0.092560,0.090881,-0.126694,-0.863449,1.673813,8.770248
2019-01-28 22:05:51:551,0.092560,0.090881,-0.126694,-0.600235,1.113892,9.360077
2019-01-28 22:05:51:551,0.022995,0.029495,-0.042267,-0.600235,1.113892,9.360077
2019-01-28 22:05:51:551,0.022995,0.029495,-0.042267,-0.203018,0.665222,9.911621
2019-01-28 22:05:51:551,0.022995,0.029495,-0.042267,-0.173111,0.620972,10.515808
2019-01-28 22:05:51:551,0.022995,0.029495,-0.042267,-0.395645,0.827942,10.641418
2019-01-28 22:05:51:551,0.022995,0.029495,-0.042267,-0.752182,1.182083,10.434448
2019-01-28 22:05:51:551,0.022995,0.029495,-0.042267,-0.731842,1.386673,10.203537
2019-01-28 22:05:51:551,0.022995,0.029495,-0.042267,-0.254471,1.241898,10.497849
2019-01-28 22:05:51:551,0.022995,0.029495,-0.042267,1.067566,1.080383,10.721588
2019-01-28 22:05:51:551,0.022995,0.029495,-0.042267,1.470764,1.155762,10.672531
2019-01-28 22:05:51:551,0.022995,0.029495,-0.042267,1.016129,1.892746,10.148499
2019-01-28 22:05:51:551,-0.051117,-0.107697,-0.102631,1.016129,1.892746,10.148499
2019-01-28 22:05:51:551,-0.051117,-0.107697,-0.102631,0.092499,2.719467,9.684296
2019-01-28 22:05:51:551,-0.051117,-0.107697,-0.102631,-0.210205,2.751770,9.222488
2019-01-28 22:05:51:551,-0.051117,-0.107697,-0.102631,-0.260452,2.478989,8.846802
2019-01-28 22:05:51:551,-0.051117,-0.107697,-0.102631,-0.516479,1.710892,8.662567
2019-01-28 22:05:51:551,-0.051117,-0.107697,-0.102631,-0.017578,0.845886,9.819489
2019-01-28 22:05:51:551,-0.051117,-0.107697,-0.102631,0.860596,0.350571,10.835251
2019-01-28 22:05:51:551,-0.051117,-0.107697,-0.102631,0.342545,0.480988,10.507431
2019-01-28 22:05:51:551,-0.051117,-0.107697,-0.102631,-0.016388,1.020569,10.210724
2019-01-28 22:05:51:551,-0.051117,-0.107697,-0.102631,0.216919,1.342392,9.462967
2019-01-28 22:05:51:551,-0.051117,-0.107697,-0.102631,0.228882,1.617569,9.565857
2019-01-28 22:05:51:551,0.006729,-0.050095,-0.215332,0.228882,1.617569,9.565857
2019-01-28 22:05:51:551,0.006729,-0.050095,-0.215332,0.317429,1.737213,9.582611
2019-01-28 22:05:51:551,0.006729,-0.050095,-0.215332,0.171463,1.777893,9.465347
2019-01-28 22:05:51:551,0.006729,-0.050095,-0.215332,0.702667,1.829330,9.179413
2019-01-28 22:05:51:551,0.006729,-0.050095,-0.215332,0.499283,1.667831,8.733154
2019-01-28 22:05:51:551,0.006729,-0.050095,-0.215332,0.368866,1.211990,8.420883
2019-01-28 22:05:51:551,0.006729,-0.050095,-0.215332,0.452606,1.048080,8.637436
2019-01-28 22:05:51:551,0.006729,-0.050095,-0.215332,0.654800,1.043304,8.886292
2019-01-28 22:05:51:551,0.006729,-0.050095,-0.215332,0.483719,1.294540,8.262955
2019-01-28 22:05:51:551,0.006729,-0.050095,-0.215332,0.378433,1.508698,8.112213
2019-01-28 22:05:51:551,-0.169250,-0.151321,0.028885,0.378433,1.508698,8.112213
2019-01-28 22:05:51:551,-0.169250,-0.151321,0.028885,0.274353,1.567322,9.838638
2019-01-28 22:05:51:551,-0.169250,-0.151321,0.028885,0.201370,1.497925,10.408127
2019-01-28 22:05:51:551,-0.169250,-0.151321,0.028885,0.364090,1.111496,10.548111
2019-01-28 22:05:51:551,-0.169250,-0.151321,0.028885,0.732574,0.612595,10.566055
2019-01-28 22:05:51:551,-0.169250,-0.151321,0.028885,0.526794,0.573105,10.122177
2019-01-28 22:05:51:551,-0.169250,-0.151321,0.028885,-0.057068,0.988251,10.032455
2019-01-28 22:05:51:551,-0.169250,-0.151321,0.028885,-0.514099,0.983475,10.098251
2019-01-28 22:05:51:551,-0.169250,-0.151321,0.028885,-0.529648,0.720261,10.232254
2019-01-28 22:05:51:551,-0.169250,-0.151321,0.028885,-0.289169,0.524048,10.256180
2019-01-28 22:05:51:551,-0.169250,-0.151321,0.028885,-0.249680,0.717880,10.695267
2019-01-28 22:05:51:551,-0.086899,-0.006241,-0.151611,-0.249680,0.717880,10.695267
2019-01-28 22:05:51:551,-0.086899,-0.006241,-0.151611,-0.169525,1.226349,10.036041
2019-01-28 22:05:51:551,-0.086899,-0.006241,-0.151611,0.105652,1.712082,9.180618
2019-01-28 22:05:51:551,-0.086899,-0.006241,-0.151611,0.319809,1.640305,8.938934
2019-01-28 22:05:51:551,-0.086899,-0.006241,-0.151611,0.953918,1.339996,9.125580
2019-01-28 22:05:52:552,-0.086899,-0.006241,-0.151611,1.325989,0.777695,9.801544
2019-01-28 22:05:52:552,-0.086899,-0.006241,-0.151611,1.567673,0.327850,10.044418
2019-01-28 22:05:52:552,-0.086899,-0.006241,-0.151611,1.177643,0.520462,9.909225
2019-01-28 22:05:52:552,-0.086899,-0.006241,-0.151611,0.817520,0.922455,10.344711
2019-01-28 22:05:52:552,-0.086899,-0.006241,-0.151611,0.388016,0.680786,10.210724
2019-01-28 22:05:52:552,-0.086899,-0.006241,-0.151611,0.517227,0.202225,9.876923
2019-01-28 22:05:52:552,-0.086899,-0.006241,-0.151611,0.395187,-0.058609,9.945114
2019-01-28 22:05:52:552,-0.086899,-0.006241,-0.151611,0.566269,-0.032288,10.129364
2019-01-28 22:05:52:552,-0.086899,-0.006241,-0.151611,0.432281,-0.095688,10.237045
2019-01-28 22:05:52:552,-0.086899,-0.006241,-0.151611,-0.131241,-0.224899,10.491882
2019-01-28 22:05:52:552,-0.086899,-0.006241,-0.151611,-0.289169,-0.315826,10.763458
2019-01-28 22:05:52:552,-0.086899,-0.006241,-0.151611,-0.297531,-0.220123,9.969040
2019-01-28 22:05:52:552,-0.086899,-0.006241,-0.151611,-0.305908,-0.124405,9.174622
2019-01-28 22:05:52:552,-0.086899,-0.006241,-0.151611,-0.179092,0.268021,9.306229
2019-01-28 22:05:52:552,-0.086899,-0.006241,-0.151611,-0.372910,0.497726,9.543121
2019-01-28 22:05:52:552,-0.086899,-0.006241,-0.151611,-0.368134,0.720261,9.222473
2019-01-28 22:05:52:552,-0.086899,-0.006241,-0.151611,-0.348984,0.497726,9.062164
2019-01-28 22:05:52:552,-0.086899,-0.006241,-0.151611,-0.013992,0.167526,9.464157
2019-01-28 22:05:52:552,-0.086899,-0.006241,-0.151611,0.222900,-0.059799,9.720184
2019-01-28 22:05:52:552,0.230988,0.145737,-0.063965,0.222900,-0.059799,9.720184
2019-01-28 22:05:52:552,0.230988,0.145737,-0.063965,0.299469,0.090942,9.693863
2019-01-28 22:05:52:552,0.230988,0.145737,-0.063965,0.320999,0.162735,9.588577
2019-01-28 22:05:52:552,0.230988,0.145737,-0.063965,0.220505,0.148376,9.765656
2019-01-28 22:05:52:552,0.230988,0.145737,-0.063965,0.246826,0.335022,10.033646
2019-01-28 22:05:52:552,0.230988,0.145737,-0.063965,0.017120,0.581482,9.619690
2019-01-28 22:05:52:552,0.230988,0.145737,-0.063965,-0.186279,0.670013,9.186584
2019-01-28 22:05:52:552,0.230988,0.145737,-0.063965,-0.308304,0.727448,9.308624
2019-01-28 22:05:52:552,0.230988,0.145737,-0.063965,-0.753372,1.079178,9.509613
2019-01-28 22:05:52:552,0.230988,0.145737,-0.063965,-0.837112,1.263428,9.550293
2019-01-28 22:05:52:552,0.166840,0.018433,0.124115,-0.837112,1.263428,9.550293
2019-01-28 22:05:52:552,0.166840,0.018433,0.124115,-0.655258,1.351974,9.502441
2019-01-28 22:05:52:552,0.166840,0.018433,0.124115,-0.466232,1.251465,9.669937
2019-01-28 22:05:52:552,0.166840,0.018433,0.124115,-0.700729,1.227539,9.720184
2019-01-28 22:05:52:552,0.166840,0.018433,0.124115,-0.640915,1.072006,9.732147
2019-01-28 22:05:52:552,0.166840,0.018433,0.124115,-0.490158,0.945190,9.540726
2019-01-28 22:05:52:552,0.166840,0.018433,0.124115,-0.104919,0.614975,9.614899
2019-01-28 22:05:52:552,0.166840,0.018433,0.124115,-0.059448,0.028732,9.878113
2019-01-28 22:05:52:552,0.166840,0.018433,0.124115,0.378433,0.059845,10.299255
2019-01-28 22:05:52:552,0.166840,0.018433,0.124115,0.191788,0.373306,9.744110
2019-01-28 22:05:52:552,-0.168030,0.017212,0.298447,0.191788,0.373306,9.744110
2019-01-28 22:05:52:552,-0.168030,0.017212,0.298447,0.337753,0.469009,9.265549
2019-01-28 22:05:52:552,-0.168030,0.017212,0.298447,0.110443,0.418762,9.150696
2019-01-28 22:05:52:552,-0.168030,0.017212,0.298447,0.021896,0.303909,9.186584
2019-01-28 22:05:52:552,-0.168030,0.017212,0.298447,0.256393,0.382874,9.634048
2019-01-28 22:05:52:552,-0.168030,0.017212,0.298447,0.009933,0.662842,9.902039
2019-01-28 22:05:52:552,-0.168030,0.017212,0.298447,-0.337021,1.048080,10.344711
2019-01-28 22:05:52:552,-0.168030,0.017212,0.298447,-0.473404,1.261047,9.978607
2019-01-28 22:05:52:552,-0.168030,0.017212,0.298447,-0.456665,1.083969,9.976227
2019-01-28 22:05:52:552,-0.168030,0.017212,0.298447,-0.363342,0.851868,9.935547
2019-01-28 22:05:52:552,-0.051712,0.049103,0.285370,-0.363342,0.851868,9.935547
2019-01-28 22:05:52:552,-0.051712,0.049103,0.285370,-0.499725,0.899719,9.454590
2019-01-28 22:05:52:552,-0.051712,0.049103,0.285370,-0.317871,0.588654,9.629257
2019-01-28 22:05:52:552,-0.051712,0.049103,0.285370,-0.418381,0.500122,9.657974
2019-01-28 22:05:52:552,-0.051712,0.049103,0.285370,-0.621765,0.521652,9.995361
2019-01-28 22:05:52:552,-0.051712,0.049103,0.285370,-0.439911,0.603012,9.887680
2019-01-28 22:05:52:552,-0.051712,0.049103,0.285370,-0.159958,0.378082,9.873322
2019-01-28 22:05:52:552,-0.051712,0.049103,0.285370,0.048218,0.074203,9.720184
2019-01-28 22:05:52:552,-0.051712,0.049103,0.285370,0.316223,0.222549,9.756073
2019-01-28 22:05:52:552,-0.051712,0.049103,0.285370,0.112823,0.370911,9.588577
2019-01-28 22:05:53:553,-0.015808,0.037857,0.063400,0.112823,0.370911,9.588577
2019-01-28 22:05:53:553,-0.015808,0.037857,0.063400,0.033875,0.291946,9.672333
2019-01-28 22:05:53:553,-0.015808,0.037857,0.063400,0.366470,0.145981,9.851791
2019-01-28 22:05:53:553,-0.015808,0.037857,0.063400,0.349716,0.277588,10.165253
2019-01-28 22:05:53:553,-0.015808,0.037857,0.063400,0.239655,0.342194,9.727371
2019-01-28 22:05:53:553,-0.015808,0.037857,0.063400,0.227692,0.095734,9.373230
2019-01-28 22:05:53:553,-0.015808,0.037857,0.063400,0.182220,0.093338,9.050201
2019-01-28 22:05:53:553,-0.015808,0.037857,0.063400,0.215729,0.251266,9.088486
2019-01-28 22:05:53:553,-0.015808,0.037857,0.063400,0.005157,0.337418,9.366043
2019-01-28 22:05:53:553,-0.015808,0.037857,0.063400,0.057800,0.244095,10.079117
2019-01-28 22:05:53:553,0.163544,-0.006607,-0.126938,0.057800,0.244095,10.079117
2019-01-28 22:05:53:553,0.163544,-0.006607,-0.126938,-0.164734,0.110092,10.237030
2019-01-28 22:05:53:553,0.163544,-0.006607,-0.126938,0.014725,0.009598,10.232254
2019-01-28 22:05:53:553,0.163544,-0.006607,-0.126938,-0.238907,0.150772,10.110214
2019-01-28 22:05:53:553,0.163544,-0.006607,-0.126938,-0.351379,0.375702,9.677109
2019-01-28 22:05:53:553,0.163544,-0.006607,-0.126938,-0.234131,0.538406,9.545517
2019-01-28 22:05:53:553,0.163544,-0.006607,-0.126938,-0.365738,0.547974,9.488083
2019-01-28 22:05:53:553,0.163544,-0.006607,-0.126938,-0.159958,0.693939,9.648407
2019-01-28 22:05:53:553,0.163544,-0.006607,-0.126938,-0.016388,0.882980,9.988190
2019-01-28 22:05:53:553,0.163544,-0.006607,-0.126938,-0.140808,1.440506,9.698654
2019-01-28 22:05:53:553,0.067886,0.046524,-0.113739,-0.140808,1.440506,9.698654
2019-01-28 22:05:53:553,0.067886,0.046524,-0.113739,-0.011597,1.234726,9.669937
2019-01-28 22:05:53:553,0.067886,0.046524,-0.113739,-0.080994,1.076797,9.698654
2019-01-28 22:05:53:553,0.067886,0.046524,-0.113739,-0.143204,0.938004,9.454590
2019-01-28 22:05:53:553,0.067886,0.046524,-0.113739,-0.140808,0.677185,9.038239
2019-01-28 22:05:53:553,0.067886,0.046524,-0.113739,0.110443,0.679581,9.669937
2019-01-28 22:05:53:553,0.067886,0.046524,-0.113739,-0.423157,1.797028,9.327759
2019-01-28 22:05:53:553,0.067886,0.046524,-0.113739,-0.291550,2.352173,9.007126
2019-01-28 22:05:53:553,0.067886,0.046524,-0.113739,-0.164734,1.966919,8.940125
2019-01-28 22:05:53:553,0.067886,0.046524,-0.113739,-0.281982,2.557953,9.011917
2019-01-28 22:05:53:553,-0.373764,-0.157486,0.065842,-0.281982,2.557953,9.011917
2019-01-28 22:05:53:553,-0.373764,-0.157486,0.065842,-0.028351,2.986267,9.873322
2019-01-28 22:05:53:553,-0.373764,-0.157486,0.065842,0.153503,2.419159,9.753693
2019-01-28 22:05:53:553,-0.373764,-0.157486,0.065842,0.464569,1.531433,10.141327
2019-01-28 22:05:53:553,-0.373764,-0.157486,0.065842,0.562683,1.337616,10.631851
2019-01-28 22:05:53:553,-0.373764,-0.157486,0.065842,0.110443,1.079178,10.990768
2019-01-28 22:05:53:553,-0.373764,-0.157486,0.065842,0.313828,0.533615,10.055176
2019-01-28 22:05:53:553,-0.373764,-0.157486,0.065842,0.416718,-0.066971,9.705826
2019-01-28 22:05:53:553,-0.373764,-0.157486,0.065842,0.428680,-0.021515,9.478516
2019-01-28 22:05:53:553,-0.373764,-0.157486,0.065842,0.127182,0.203415,9.078903
2019-01-28 22:05:53:553,-0.022278,-0.130249,-0.218567,0.127182,0.203415,9.078903
2019-01-28 22:05:53:553,-0.022278,-0.130249,-0.218567,0.251617,0.210587,9.210510
2019-01-28 22:05:53:553,-0.022278,-0.130249,-0.218567,0.572250,0.552765,9.672333
2019-01-28 22:05:53:553,-0.022278,-0.130249,-0.218567,0.574646,1.079178,10.071930
2019-01-28 22:05:53:553,-0.022278,-0.130249,-0.218567,0.620102,1.036118,9.607727
2019-01-28 22:05:53:553,-0.022278,-0.130249,-0.218567,0.644043,1.158142,9.674728
2019-01-28 22:05:53:553,-0.022278,-0.130249,-0.218567,0.426285,1.519470,10.153290
2019-01-28 22:05:53:553,-0.022278,-0.130249,-0.218567,0.081726,1.454865,9.813507
2019-01-28 22:05:53:553,-0.022278,-0.130249,-0.218567,-0.310699,0.629333,9.691467
2019-01-28 22:05:53:553,-0.022278,-0.130249,-0.218567,-0.236526,0.148376,9.638824
2019-01-28 22:05:53:553,-0.022278,-0.130249,-0.218567,-0.083374,0.595840,9.751297
2019-01-28 22:05:54:554,-0.022278,-0.130249,-0.218567,-0.159958,0.638901,9.380402
2019-01-28 22:05:54:554,-0.022278,-0.130249,-0.218567,-0.100128,0.624542,9.468933
2019-01-28 22:05:54:554,-0.022278,-0.130249,-0.218567,-0.030731,0.820755,10.275314
2019-01-28 22:05:54:554,-0.022278,-0.130249,-0.218567,0.179825,0.871017,9.734543
2019-01-28 22:05:54:554,-0.022278,-0.130249,-0.218567,0.522003,0.808792,9.653183
2019-01-28 22:05:54:554,-0.022278,-0.130249,-0.218567,0.366470,0.897324,9.827866
2019-01-28 22:05:54:554,-0.022278,-0.130249,-0.218567,0.409546,0.873398,10.033646
2019-01-28 22:05:54:554,-0.022278,-0.130249,-0.218567,0.493286,0.411591,9.715408
2019-01-28 22:05:54:554,-0.049774,-0.102753,0.046661,0.493286,0.411591,9.715408
2019-01-28 22:05:54:554,-0.049774,-0.102753,0.046661,0.325790,0.169907,9.528763
2019-01-28 22:05:54:554,-0.049774,-0.102753,0.046661,0.459793,0.368515,9.906830
2019-01-28 22:05:54:554,-0.049774,-0.102753,0.046661,0.780426,0.311096,9.406723
2019-01-28 22:05:54:554,-0.049774,-0.102753,0.046661,1.034073,0.289551,9.258377
2019-01-28 22:05:54:554,-0.049774,-0.102753,0.046661,0.981430,0.454666,9.818298
2019-01-28 22:05:54:554,-0.049774,-0.102753,0.046661,0.823502,0.674805,9.646011
2019-01-28 22:05:54:554,-0.049774,-0.102753,0.046661,0.794785,0.646088,9.043015
2019-01-28 22:05:54:554,-0.049774,-0.102753,0.046661,0.706253,0.528839,9.002335
2019-01-28 22:05:54:554,-0.049774,-0.102753,0.046661,0.586609,0.445084,9.811111
2019-01-28 22:05:54:554,0.028183,-0.057800,-0.112030,0.586609,0.445084,9.811111
2019-01-28 22:05:54:554,0.028183,-0.057800,-0.112030,0.517212,0.638901,10.306427
2019-01-28 22:05:54:554,0.028183,-0.057800,-0.112030,0.237259,0.909302,10.488281
2019-01-28 22:05:54:554,0.028183,-0.057800,-0.112030,-0.136017,1.002609,10.093460
2019-01-28 22:05:54:554,0.028183,-0.057800,-0.112030,-0.025955,0.598221,9.574219
2019-01-28 22:05:54:554,0.028183,-0.057800,-0.112030,0.309036,0.323059,9.818298
2019-01-28 22:05:54:554,0.028183,-0.057800,-0.112030,0.474152,0.507294,9.985794
2019-01-28 22:05:54:554,0.028183,-0.057800,-0.112030,0.529175,0.607803,9.217697
2019-01-28 22:05:54:554,0.028183,-0.057800,-0.112030,0.426285,0.617371,9.165054
2019-01-28 22:05:54:554,0.028183,-0.057800,-0.112030,-0.136017,0.961945,9.648407
2019-01-28 22:05:54:554,0.010956,-0.015533,-0.002563,-0.136017,0.961945,9.648407
2019-01-28 22:05:54:554,0.010956,-0.015533,-0.002563,0.194183,0.827942,9.538330
2019-01-28 22:05:54:554,0.010956,-0.015533,-0.002563,0.569855,0.614975,9.382797
2019-01-28 22:05:54:554,0.010956,-0.015533,-0.002563,0.873749,0.454666,9.672333
2019-01-28 22:05:54:554,0.010956,-0.015533,-0.002563,0.505249,0.717865,9.827866
2019-01-28 22:05:54:554,0.010956,-0.015533,-0.002563,0.213333,1.007401,10.036041
2019-01-28 22:05:54:554,0.010956,-0.015533,-0.002563,0.038651,1.217972,10.246613
2019-01-28 22:05:54:554,0.010956,-0.015533,-0.002563,0.079330,1.284973,10.239426
2019-01-28 22:05:54:554,0.010956,-0.015533,-0.002563,0.151123,0.981079,9.492874
2019-01-28 22:05:54:554,0.010956,-0.015533,-0.002563,0.433472,0.713089,9.234451
2019-01-28 22:05:54:554,-0.031937,-0.031418,0.082703,0.433472,0.713089,9.234451
2019-01-28 22:05:54:554,-0.031937,-0.031418,0.082703,0.354507,0.715469,9.442612
2019-01-28 22:05:54:554,-0.031937,-0.031418,0.082703,0.426285,0.574295,9.605331
2019-01-28 22:05:54:554,-0.031937,-0.031418,0.082703,0.158295,0.734619,10.012115
2019-01-28 22:05:54:554,-0.031937,-0.031418,0.082703,-0.133636,0.957153,10.720383
2019-01-28 22:05:54:554,-0.031937,-0.031418,0.082703,-0.104919,1.024155,10.091080
2019-01-28 22:05:54:554,-0.031937,-0.031418,0.082703,0.151123,0.873398,9.523972
2019-01-28 22:05:54:554,-0.031937,-0.031418,0.082703,0.179825,0.722656,9.667542
2019-01-28 22:05:54:554,-0.031937,-0.031418,0.082703,0.359299,0.536011,9.849396
2019-01-28 22:05:54:554,-0.031937,-0.031418,0.082703,0.778030,0.636520,10.038437
2019-01-28 22:05:54:554,0.252594,-0.002457,0.282822,0.778030,0.636520,10.038437
2019-01-28 22:05:54:554,0.252594,-0.002457,0.282822,0.856995,0.593445,10.509811
2019-01-28 22:05:54:554,0.252594,-0.002457,0.282822,1.139359,0.545593,10.560074
2019-01-28 22:05:54:554,0.252594,-0.002457,0.282822,1.223099,1.198822,10.500244
2019-01-28 22:05:54:554,0.252594,-0.002457,0.282822,0.416718,1.895142,9.933151
2019-01-28 22:05:54:554,0.252594,-0.002457,0.282822,-0.047485,2.213379,8.590775
2019-01-28 22:05:54:554,0.252594,-0.002457,0.282822,-0.095352,1.981277,7.643219
2019-01-28 22:05:54:554,0.252594,-0.002457,0.282822,0.354507,1.392639,8.296463
2019-01-28 22:05:54:554,0.252594,-0.002457,0.282822,0.926392,0.729828,9.351700
2019-01-28 22:05:54:554,0.252594,-0.002457,0.282822,1.424103,0.524048,10.076721
2019-01-28 22:05:54:554,0.252594,-0.002457,0.282822,1.096283,1.069611,10.552887
2019-01-28 22:05:54:554,0.252594,-0.002457,0.282822,1.096283,1.069611,10.552887
2019-01-28 22:05:54:554,0.252594,-0.002457,0.282822,0.448425,2.036911,9.775833
2019-01-28 22:05:54:554,0.252594,-0.002457,0.282822,0.018311,2.042297,9.302643
2019-01-28 22:05:54:554,0.252594,-0.002457,0.282822,0.393982,1.496735,9.281113
2019-01-28 22:05:54:554,0.252594,-0.002457,0.282822,0.731384,1.137817,9.459381
2019-01-28 22:05:55:555,-0.093109,-0.006332,0.127441,0.731384,1.137817,9.459381
2019-01-28 22:05:55:555,-0.093109,-0.006332,0.127441,0.885727,1.083969,9.504837
2019-01-28 22:05:55:555,-0.093109,-0.006332,0.127441,0.805557,1.250275,8.976028
2019-01-28 22:05:55:555,-0.093109,-0.006332,0.127441,0.378433,1.606796,8.891083
2019-01-28 22:05:55:555,-0.093109,-0.006332,0.127441,-0.023560,1.722855,9.419891
2019-01-28 22:05:55:555,-0.093109,-0.006332,0.127441,0.038651,1.702515,9.736938
2019-01-28 22:05:55:555,-0.093109,-0.006332,0.127441,0.330582,1.578094,10.079117
2019-01-28 22:05:55:555,-0.093109,-0.006332,0.127441,0.782822,1.314880,10.075516
2019-01-28 22:05:55:555,-0.093109,-0.006332,0.127441,1.016129,0.939209,10.079117
2019-01-28 22:05:55:555,-0.093109,-0.006332,0.127441,1.078339,0.784866,10.000153
2019-01-28 22:05:55:555,0.011627,0.192520,-0.028900,1.078339,0.784866,10.000153
2019-01-28 22:05:55:555,0.011627,0.192520,-0.028900,0.955109,0.815979,9.759674
2019-01-28 22:05:55:555,0.011627,0.192520,-0.028900,0.884521,0.882980,9.340927
2019-01-28 22:05:55:555,0.011627,0.192520,-0.028900,0.664383,1.129440,9.315796
2019-01-28 22:05:55:555,0.011627,0.192520,-0.028900,0.051819,1.616379,9.270340
2019-01-28 22:05:55:555,0.011627,0.192520,-0.028900,-0.309509,2.008804,9.076523
2019-01-28 22:05:55:555,0.011627,0.192520,-0.028900,-0.310699,1.618774,8.638641
2019-01-28 22:05:55:555,0.011627,0.192520,-0.028900,0.593796,0.872208,8.828857
2019-01-28 22:05:55:555,0.011627,0.192520,-0.028900,0.870163,0.594650,9.848206
2019-01-28 22:05:55:555,0.011627,0.192520,-0.028900,0.517227,0.607803,10.434448
2019-01-28 22:05:55:555,0.011627,0.192520,-0.028900,0.366470,0.946381,9.924774
2019-01-28 22:05:55:555,-0.129120,0.156723,-0.142700,0.366470,0.946381,9.924774
2019-01-28 22:05:55:555,-0.129120,0.156723,-0.142700,0.583023,1.411789,9.160278
2019-01-28 22:05:55:555,-0.129120,0.156723,-0.142700,-0.031937,1.960938,8.288086
2019-01-28 22:05:55:555,-0.129120,0.156723,-0.142700,0.358093,2.386871,10.002548
2019-01-28 22:05:55:555,-0.129120,0.156723,-0.142700,0.044632,1.764725,9.835052
2019-01-28 22:05:55:555,-0.129120,0.156723,-0.142700,0.018326,0.904510,10.232254
2019-01-28 22:05:55:555,-0.129120,0.156723,-0.142700,0.169067,0.617371,10.719193
2019-01-28 22:05:55:555,-0.129120,0.156723,-0.142700,0.195389,0.691559,10.627075
2019-01-28 22:05:55:555,-0.129120,0.156723,-0.142700,0.027893,0.845886,9.713013
2019-01-28 22:05:55:555,-0.129120,0.156723,-0.142700,-0.332245,1.040909,8.794174
2019-01-28 22:05:55:555,-0.175293,-0.015839,-0.125351,-0.332245,1.040909,8.794174
2019-01-28 22:05:55:555,-0.175293,-0.015839,-0.125351,-0.137222,1.000229,8.751099
2019-01-28 22:05:55:555,-0.175293,-0.015839,-0.125351,-0.134827,0.778885,8.889877
2019-01-28 22:05:55:555,-0.175293,-0.015839,-0.125351,-0.130051,0.405609,9.539536
2019-01-28 22:05:55:555,-0.175293,-0.015839,-0.125351,0.076950,0.357758,10.136551
2019-01-28 22:05:55:555,-0.175293,-0.015839,-0.125351,0.216919,0.726242,10.179611
2019-01-28 22:05:55:555,-0.175293,-0.015839,-0.125351,0.251617,0.836319,9.971436
2019-01-28 22:05:55:555,-0.175293,-0.015839,-0.125351,0.195389,0.733429,9.862564
2019-01-28 22:05:55:555,-0.175293,-0.015839,-0.125351,0.050613,0.859055,10.253799
2019-01-28 22:05:55:555,-0.175293,-0.015839,-0.125351,-0.231735,1.011002,10.283691
2019-01-28 22:05:55:555,-0.175293,-0.015839,-0.125351,-0.248489,0.900925,9.506042
2019-01-28 22:05:55:555,-0.039383,-0.129700,0.002563,-0.248489,0.900925,9.506042
2019-01-28 22:05:55:555,-0.039383,-0.129700,0.002563,-0.072617,0.482178,8.729553
2019-01-28 22:05:55:555,-0.039383,-0.129700,0.002563,0.045837,0.165131,9.031052
2019-01-28 22:05:55:555,-0.039383,-0.129700,0.002563,0.292297,0.118469,9.936737
2019-01-28 22:05:55:555,-0.039383,-0.129700,0.002563,0.407150,0.357758,10.140137
2019-01-28 22:05:55:555,-0.039383,-0.129700,0.002563,0.130783,0.569519,10.122192
2019-01-28 22:05:55:555,-0.039383,-0.129700,0.002563,0.135559,0.613785,10.341125
2019-01-28 22:05:55:555,-0.039383,-0.129700,0.002563,0.488510,0.776505,10.935745
2019-01-28 22:05:55:555,-0.039383,-0.129700,0.002563,0.657196,0.737015,11.017105
2019-01-28 22:05:55:555,-0.039383,-0.129700,0.002563,0.638062,0.556351,10.487091
2019-01-28 22:05:56:556,0.081818,-0.105011,0.071899,0.638062,0.556351,10.487091
2019-01-28 22:05:56:556,0.081818,-0.105011,0.071899,0.551926,0.659256,9.927170
2019-01-28 22:05:56:556,0.081818,-0.105011,0.071899,0.294693,0.764526,9.369644
2019-01-28 22:05:56:556,0.081818,-0.105011,0.071899,0.383224,0.872208,8.611115
2019-01-28 22:05:56:556,0.081818,-0.105011,0.071899,0.146332,0.842300,8.188782
2019-01-28 22:05:56:556,0.081818,-0.105011,0.071899,0.133179,0.552765,8.745117
2019-01-28 22:05:56:556,0.081818,-0.105011,0.071899,0.228882,0.475006,9.608932
2019-01-28 22:05:56:556,0.081818,-0.105011,0.071899,0.376038,0.620956,9.965454
2019-01-28 22:05:56:556,0.081818,-0.105011,0.071899,0.416718,0.648483,9.863754
2019-01-28 22:05:56:556,0.081818,-0.105011,0.071899,0.380829,0.392441,9.672333
2019-01-28 22:05:56:556,0.110031,0.086975,0.035248,0.380829,0.392441,9.672333
2019-01-28 22:05:56:556,0.110031,0.086975,0.035248,0.535172,0.049088,9.538330
2019-01-28 22:05:56:556,0.110031,0.086975,0.035248,0.593796,0.081375,9.328964
2019-01-28 22:05:56:556,0.110031,0.086975,0.035248,0.451416,0.430740,8.989182
2019-01-28 22:05:56:556,0.110031,0.086975,0.035248,0.647629,0.345779,8.852783
2019-01-28 22:05:56:556,0.110031,0.086975,0.035248,1.278137,-0.315826,10.543320
2019-01-28 22:05:56:556,0.110031,0.086975,0.035248,1.270966,-1.214340,12.537735
2019-01-28 22:05:56:556,0.110031,0.086975,0.035248,0.667969,-1.070770,10.856781
2019-01-28 22:05:56:556,0.110031,0.086975,0.035248,0.209747,-0.435486,9.600540
2019-01-28 22:05:56:556,0.110031,0.086975,0.035248,-0.097733,0.162735,9.293076
2019-01-28 22:05:56:556,0.110031,0.086975,0.035248,-0.052277,0.406799,9.241623
2019-01-28 22:05:56:556,0.110031,0.086975,0.035248,0.154694,0.339798,9.483292
2019-01-28 22:05:56:556,0.110031,0.086975,0.035248,0.361679,0.272797,9.724976
2019-01-28 22:05:56:556,0.110031,0.086975,0.035248,0.443039,0.622162,9.354080
2019-01-28 22:05:56:556,0.110031,0.086975,0.035248,-0.025955,1.143799,9.255981
2019-01-28 22:05:56:556,0.110031,0.086975,0.035248,0.000366,1.605606,8.968842
2019-01-28 22:05:56:556,0.110031,0.086975,0.035248,0.098480,1.373505,9.244019
2019-01-28 22:05:56:556,0.110031,0.086975,0.035248,0.522003,0.909302,10.272934
2019-01-28 22:05:56:556,0.110031,0.086975,0.035248,0.902466,0.770508,10.796951
2019-01-28 22:05:56:556,-0.176086,0.044815,0.069565,0.902466,0.770508,10.796951
2019-01-28 22:05:56:556,-0.176086,0.044815,0.069565,0.998169,1.064835,11.816299
2019-01-28 22:05:56:556,-0.176086,0.044815,0.069565,0.591400,0.882980,11.584198
2019-01-28 22:05:56:556,-0.176086,0.044815,0.069565,0.450226,0.246490,9.952286
2019-01-28 22:05:56:556,-0.176086,0.044815,0.069565,0.397583,-0.363693,8.629059
2019-01-28 22:05:56:556,-0.176086,0.044815,0.069565,0.868958,-0.177048,8.624268
2019-01-28 22:05:56:556,-0.176086,0.044815,0.069565,0.868958,-0.177048,8.624268
2019-01-28 22:05:56:556,-0.176086,0.044815,0.069565,0.228287,0.440308,7.380615
2019-01-28 22:05:56:556,-0.176086,0.044815,0.069565,-0.095352,0.513290,7.804733
2019-01-28 22:05:56:556,-0.176086,0.044815,0.069565,-0.157562,0.269211,10.106628
2019-01-28 22:05:56:556,-0.176086,0.044815,0.069565,0.103271,0.282379,12.075928
2019-01-28 22:05:56:556,-0.176086,0.044815,0.069565,0.106857,0.737015,12.395370
2019-01-28 22:05:56:556,-0.176086,0.044815,0.069565,0.002762,1.027740,11.556686
2019-01-28 22:05:56:556,-0.176086,0.044815,0.069565,-0.515289,1.237122,9.978622
2019-01-28 22:05:56:556,-0.176086,0.044815,0.069565,-0.485382,1.447693,9.577820
2019-01-28 22:05:56:556,0.069870,0.074051,-0.244949,-0.485382,1.447693,9.577820
2019-01-28 22:05:56:556,0.069870,0.074051,-0.244949,-0.796448,1.722855,8.179214
2019-01-28 22:05:56:556,0.069870,0.074051,-0.244949,-0.354965,1.252670,7.218491
2019-01-28 22:05:56:556,0.069870,0.074051,-0.244949,0.433472,0.082581,7.603745
2019-01-28 22:05:56:556,0.069870,0.074051,-0.244949,1.286514,-1.281342,9.697464
2019-01-28 22:05:56:556,0.069870,0.074051,-0.244949,2.196976,-1.750336,12.002945
2019-01-28 22:05:56:556,0.069870,0.074051,-0.244949,2.137161,-0.843445,12.421692
2019-01-28 22:05:56:556,0.069870,0.074051,-0.244949,0.829483,0.713089,11.269547
2019-01-28 22:05:56:556,0.069870,0.074051,-0.244949,-0.904114,2.482574,9.662766
2019-01-28 22:05:56:556,0.069870,0.074051,-0.244949,-1.919876,3.586868,8.131363
2019-01-28 22:05:57:557,0.023346,-0.121933,-0.088150,-1.919876,3.586868,8.131363
2019-01-28 22:05:57:557,0.023346,-0.121933,-0.088150,-2.174713,3.186066,7.705429
2019-01-28 22:05:57:557,0.023346,-0.121933,-0.088150,-0.845505,1.537415,8.668549
2019-01-28 22:05:57:557,0.023346,-0.121933,-0.088150,0.833069,-0.541946,10.829269
2019-01-28 22:05:57:557,0.023346,-0.121933,-0.088150,2.118011,-1.768280,12.676529
2019-01-28 22:05:57:557,0.023346,-0.121933,-0.088150,1.694489,-1.264587,11.533951
2019-01-28 22:05:57:557,0.023346,-0.121933,-0.088150,0.975449,-0.282333,10.018097
2019-01-28 22:05:57:557,0.023346,-0.121933,-0.088150,0.082932,0.424759,9.914001
2019-01-28 22:05:57:557,0.023346,-0.121933,-0.088150,-0.023560,1.072006,8.222275
2019-01-28 22:05:57:557,0.023346,-0.121933,-0.088150,-0.420761,1.651077,7.387192
2019-01-28 22:05:57:557,0.023346,-0.121933,-0.088150,-0.243698,2.117676,6.721985
2019-01-28 22:05:57:557,0.023346,-0.121933,-0.088150,0.428680,1.371109,10.232254
2019-01-28 22:05:57:557,0.023346,-0.121933,-0.088150,1.419312,-0.078934,13.689880
2019-01-28 22:05:57:557,0.023346,-0.121933,-0.088150,0.904861,-0.122009,11.330551
2019-01-28 22:05:57:557,0.023346,-0.121933,-0.088150,0.373642,0.311096,9.270340
2019-01-28 22:05:57:557,0.207764,0.075607,-0.153320,0.373642,0.311096,9.270340
2019-01-28 22:05:57:557,0.207764,0.075607,-0.153320,-0.021164,0.988251,8.973633
2019-01-28 22:05:57:557,0.207764,0.075607,-0.153320,-0.334625,1.483566,9.437836
2019-01-28 22:05:57:557,0.207764,0.075607,-0.153320,-0.217377,1.490753,10.129364
2019-01-28 22:05:57:557,0.207764,0.075607,-0.153320,-0.181488,1.227539,10.251389
2019-01-28 22:05:57:557,0.207764,0.075607,-0.153320,-0.121658,1.083969,9.648407
2019-01-28 22:05:57:557,0.207764,0.075607,-0.153320,0.096085,1.160538,9.418686
2019-01-28 22:05:57:557,0.207764,0.075607,-0.153320,0.072159,1.433319,9.272736
2019-01-28 22:05:57:557,0.207764,0.075607,-0.153320,-0.219772,1.605606,9.291870
2019-01-28 22:05:57:557,0.207764,0.075607,-0.153320,-0.365738,1.462036,9.595764
2019-01-28 22:05:57:557,-0.101318,0.018921,-0.025650,-0.365738,1.462036,9.595764
2019-01-28 22:05:57:557,-0.101318,0.018921,-0.025650,-0.025955,1.174896,9.617294
2019-01-28 22:05:57:557,-0.101318,0.018921,-0.025650,0.565079,0.911682,9.562256
2019-01-28 22:05:57:557,-0.101318,0.018921,-0.025650,0.842636,0.746582,9.669937
2019-01-28 22:05:57:557,-0.101318,0.018921,-0.025650,0.639252,0.674805,10.081497
2019-01-28 22:05:57:557,-0.101318,0.018921,-0.025650,0.297073,0.794434,10.502640
2019-01-28 22:05:57:557,-0.101318,0.018921,-0.025650,0.163086,0.509689,10.600739
2019-01-28 22:05:57:557,-0.101318,0.018921,-0.025650,0.263580,0.373306,10.574417
2019-01-28 22:05:57:557,-0.101318,0.018921,-0.025650,0.105652,1.112686,10.191574
2019-01-28 22:05:57:557,-0.101318,0.018921,-0.025650,-0.265228,1.698929,9.054977
2019-01-28 22:05:57:557,0.072891,-0.057678,-0.041534,-0.265228,1.698929,9.054977
2019-01-28 22:05:57:557,0.072891,-0.057678,-0.041534,-0.002029,1.155762,8.042816
2019-01-28 22:05:57:557,0.072891,-0.057678,-0.041534,0.242050,0.358948,8.880310
2019-01-28 22:05:57:557,0.072891,-0.057678,-0.041534,0.502869,0.521652,9.782394
2019-01-28 22:05:57:557,0.072891,-0.057678,-0.041534,-0.073807,1.277786,9.282303
2019-01-28 22:05:57:557,0.072891,-0.057678,-0.041534,-0.167130,1.481186,8.983200
2019-01-28 22:05:57:557,0.072891,-0.057678,-0.041534,0.012329,0.954758,9.387589
2019-01-28 22:05:57:557,0.072891,-0.057678,-0.041534,0.344940,0.571915,10.758667
2019-01-28 22:05:57:557,0.072891,-0.057678,-0.041534,-0.023560,0.868622,10.473923
2019-01-28 22:05:57:557,0.072891,-0.057678,-0.041534,0.179825,1.430923,9.188980
2019-01-28 22:05:57:557,0.010468,-0.073669,0.015762,0.179825,1.430923,9.188980
2019-01-28 22:05:57:557,0.010468,-0.073669,0.015762,0.160690,1.670212,8.294067
2019-01-28 22:05:57:557,0.010468,-0.073669,0.015762,-0.078598,1.646286,9.332550
2019-01-28 22:05:57:557,0.010468,-0.073669,0.015762,0.134369,1.414185,10.272934
2019-01-28 22:05:57:557,0.010468,-0.073669,0.015762,1.069962,0.705902,10.304031
2019-01-28 22:05:57:557,0.010468,-0.073669,0.015762,0.912033,0.160339,9.899643
2019-01-28 22:05:57:557,0.010468,-0.073669,0.015762,0.490891,0.308701,9.928360
2019-01-28 22:05:57:557,0.010468,-0.073669,0.015762,-0.059448,1.366318,10.174820
2019-01-28 22:05:57:557,0.010468,-0.073669,0.015762,-0.080994,1.777893,9.732147
2019-01-28 22:05:57:557,0.010468,-0.073669,0.015762,0.210938,1.225143,9.392365
2019-01-28 22:05:58:558,-0.086411,-0.144043,0.070480,0.210938,1.225143,9.392365
2019-01-28 22:05:58:558,-0.086411,-0.144043,0.070480,-0.109695,1.115082,9.849396
2019-01-28 22:05:58:558,-0.086411,-0.144043,0.070480,0.280334,0.938004,10.191574
2019-01-28 22:05:58:558,-0.086411,-0.144043,0.070480,0.514832,0.847076,9.887680
2019-01-28 22:05:58:558,-0.086411,-0.144043,0.070480,0.531570,1.141403,9.691467
2019-01-28 22:05:58:558,-0.086411,-0.144043,0.070480,0.163086,1.557755,9.997757
2019-01-28 22:05:58:558,-0.086411,-0.144043,0.070480,-0.140808,1.734818,9.619690
2019-01-28 22:05:58:558,-0.086411,-0.144043,0.070480,0.007553,0.804016,9.299057
2019-01-28 22:05:58:558,-0.086411,-0.144043,0.070480,1.297272,-0.356506,9.677109
2019-01-28 22:05:58:558,-0.086411,-0.144043,0.070480,1.383423,-0.244049,10.526566
2019-01-28 22:05:58:558,0.115646,-0.006119,0.100906,1.383423,-0.244049,10.526566
2019-01-28 22:05:58:558,0.115646,-0.006119,0.100906,0.811539,0.942795,10.481110
2019-01-28 22:05:58:558,0.115646,-0.006119,0.100906,0.160690,1.849670,8.617096
2019-01-28 22:05:58:558,0.115646,-0.006119,0.100906,0.371262,1.239502,8.229462
2019-01-28 22:05:58:558,0.115646,-0.006119,0.100906,0.476547,0.655655,9.964249
2019-01-28 22:05:58:558,0.115646,-0.006119,0.100906,0.270752,1.112686,10.591171
2019-01-28 22:05:58:558,0.115646,-0.006119,0.100906,0.086517,1.871216,8.734344
2019-01-28 22:05:58:558,0.115646,-0.006119,0.100906,0.179825,2.043488,6.365448
2019-01-28 22:05:58:558,0.115646,-0.006119,0.100906,0.234863,1.445282,7.028259
2019-01-28 22:05:58:558,0.115646,-0.006119,0.100906,0.455002,0.993042,9.435440
2019-01-28 22:05:58:558,-0.129669,-0.003189,0.096252,0.455002,0.993042,9.435440
2019-01-28 22:05:58:558,-0.129669,-0.003189,0.096252,0.758896,0.610199,10.971634
2019-01-28 22:05:58:558,-0.129669,-0.003189,0.096252,1.046036,0.564728,10.531357
2019-01-28 22:05:58:558,-0.129669,-0.003189,0.096252,0.742142,0.921265,9.803940
2019-01-28 22:05:58:558,-0.129669,-0.003189,0.096252,0.364075,1.119858,9.775223
2019-01-28 22:05:58:558,-0.129669,-0.003189,0.096252,0.447830,0.851868,10.284897
2019-01-28 22:05:58:558,-0.129669,-0.003189,0.096252,0.294693,0.906906,11.165451
2019-01-28 22:05:58:558,-0.129669,-0.003189,0.096252,0.421509,1.411789,10.859177
2019-01-28 22:05:58:558,-0.129669,-0.003189,0.096252,0.404755,1.531433,9.624481
2019-01-28 22:05:58:558,-0.129669,-0.003189,0.096252,0.660782,1.007401,9.612503
2019-01-28 22:05:58:558,0.136169,0.124588,-0.062180,0.660782,1.007401,9.612503
2019-01-28 22:05:58:558,0.136169,0.124588,-0.062180,0.871353,0.770508,10.837631
2019-01-28 22:05:58:558,0.136169,0.124588,-0.062180,0.830673,0.930832,11.043411
2019-01-28 22:05:58:558,0.136169,0.124588,-0.062180,0.644043,0.935623,9.868546
2019-01-28 22:05:58:558,0.136169,0.124588,-0.062180,0.612930,0.928436,9.033447
2019-01-28 22:05:58:558,0.136169,0.124588,-0.062180,0.495682,0.930832,8.865952
2019-01-28 22:05:58:558,0.136169,0.124588,-0.062180,0.330582,0.978683,8.727173
2019-01-28 22:05:58:558,0.136169,0.124588,-0.062180,0.285110,0.847076,8.581207
2019-01-28 22:05:58:558,0.136169,0.124588,-0.062180,0.268372,0.715469,8.729553
2019-01-28 22:05:58:558,0.136169,0.124588,-0.062180,0.069763,0.768112,9.270340
2019-01-28 22:05:58:558,0.214127,0.120560,-0.028091,0.069763,0.768112,9.270340
2019-01-28 22:05:58:558,0.214127,0.120560,-0.028091,-0.136017,0.471405,10.837631
2019-01-28 22:05:58:558,0.214127,0.120560,-0.028091,0.218109,-0.071762,11.256378
2019-01-28 22:05:58:558,0.214127,0.120560,-0.028091,0.569855,-0.031082,10.713211
2019-01-28 22:05:58:558,0.214127,0.120560,-0.028091,0.019516,0.574295,10.198746
2019-01-28 22:05:58:558,0.214127,0.120560,-0.028091,-0.128845,0.478592,9.418686
2019-01-28 22:05:58:558,0.214127,0.120560,-0.028091,0.122406,-0.614929,9.796753
2019-01-28 22:05:58:558,0.214127,0.120560,-0.028091,0.084122,-0.502472,10.335144
2019-01-28 22:05:58:558,0.214127,0.120560,-0.028091,-0.487762,0.351761,9.411514
2019-01-28 22:05:58:558,0.214127,0.120560,-0.028091,-0.739014,0.729828,8.660172
2019-01-28 22:05:59:559,0.214127,0.120560,-0.028091,-0.662445,0.318268,9.722580
2019-01-28 22:05:59:559,0.214127,0.120560,-0.028091,-0.169525,0.234512,9.679504
2019-01-28 22:05:59:559,0.214127,0.120560,-0.028091,-0.131241,0.399628,9.643616
2019-01-28 22:05:59:559,0.214127,0.120560,-0.028091,0.347321,0.672409,9.480911
2019-01-28 22:05:59:559,0.214127,0.120560,-0.028091,0.323395,1.117477,9.184189
2019-01-28 22:05:59:559,0.214127,0.120560,-0.028091,0.115219,1.643890,9.107620
2019-01-28 22:05:59:559,0.214127,0.120560,-0.028091,-0.162338,1.631927,9.313400
2019-01-28 22:05:59:559,0.214127,0.120560,-0.028091,0.000366,1.249069,9.571838
2019-01-28 22:05:59:559,0.214127,0.120560,-0.028091,-0.224564,1.174896,9.904434
2019-01-28 22:05:59:559,0.192734,0.142303,-0.065475,-0.224564,1.174896,9.904434
2019-01-28 22:05:59:559,0.192734,0.142303,-0.065475,-0.439911,1.445282,9.940323
2019-01-28 22:05:59:559,0.192734,0.142303,-0.065475,-0.557159,1.679779,9.736938
2019-01-28 22:05:59:559,0.192734,0.142303,-0.065475,-0.387268,1.624756,9.693863
2019-01-28 22:05:59:559,0.192734,0.142303,-0.065475,-0.365738,1.483566,9.787186
2019-01-28 22:05:59:559,0.192734,0.142303,-0.065475,-0.176697,1.469223,10.004929
2019-01-28 22:05:59:559,0.192734,0.142303,-0.065475,-0.344193,1.344788,10.648605
2019-01-28 22:05:59:559,0.192734,0.142303,-0.065475,-0.344193,1.344788,10.648605
2019-01-28 22:05:59:559,0.192734,0.142303,-0.065475,-0.399841,1.364532,9.776428
2019-01-28 22:05:59:559,0.192734,0.142303,-0.065475,-0.314285,1.442902,9.709427
2019-01-28 22:05:59:559,0.192734,0.142303,-0.065475,-0.292755,1.591248,9.436646
2019-01-28 22:05:59:559,0.192734,0.142303,-0.065475,-0.223358,1.672607,9.114807
2019-01-28 22:05:59:559,0.192734,0.142303,-0.065475,-0.407608,1.636719,9.401947
2019-01-28 22:05:59:559,0.192734,0.142303,-0.065475,-0.309509,1.521866,9.276321
2019-01-28 22:05:59:559,0.192734,0.142303,-0.065475,-0.201828,1.271820,9.317001
2019-01-28 22:05:59:559,0.192734,0.142303,-0.065475,-0.259262,1.177292,9.503647
2019-01-28 22:05:59:559,0.030197,-0.061829,0.017258,-0.259262,1.177292,9.503647
2019-01-28 22:05:59:559,0.030197,-0.061829,0.017258,-0.433929,1.380692,9.668747
2019-01-28 22:05:59:559,0.030197,-0.061829,0.017258,-0.322662,1.708496,9.510818
2019-01-28 22:05:59:559,0.030197,-0.061829,0.017258,-0.182693,1.713287,9.411514
2019-01-28 22:05:59:559,0.030197,-0.061829,0.017258,0.025497,1.331635,9.406738
2019-01-28 22:05:59:559,0.030197,-0.061829,0.017258,0.121216,1.217972,9.852997
2019-01-28 22:05:59:559,0.030197,-0.061829,0.017258,-0.017578,1.416580,10.308823
2019-01-28 22:05:59:559,0.030197,-0.061829,0.017258,-0.051086,1.459641,10.008530
2019-01-28 22:05:59:559,0.030197,-0.061829,0.017258,0.249222,1.318466,9.681900
2019-01-28 22:05:59:559,0.030197,-0.061829,0.017258,0.099670,1.301712,9.612503
2019-01-28 22:05:59:559,0.030197,-0.061829,0.017258,-0.194656,1.432129,10.076721
2019-01-28 22:05:59:559,-0.172058,-0.109970,0.098450,-0.194656,1.432129,10.076721
2019-01-28 22:05:59:559,-0.172058,-0.109970,0.098450,-0.152771,1.538605,9.772842
2019-01-28 22:05:59:559,-0.172058,-0.109970,0.098450,-0.107315,1.217972,9.543121
2019-01-28 22:05:59:559,-0.172058,-0.109970,0.098450,-0.012787,0.769318,9.715408
2019-01-28 22:05:59:559,-0.172058,-0.109970,0.098450,-0.133636,0.533630,10.388977
2019-01-28 22:05:59:559,-0.172058,-0.109970,0.098450,-0.187469,0.853073,10.250198
2019-01-28 22:05:59:559,-0.172058,-0.109970,0.098450,-0.266434,1.243103,9.104034
2019-01-28 22:05:59:559,-0.172058,-0.109970,0.098450,-0.431534,1.466827,8.667343
2019-01-28 22:05:59:559,-0.172058,-0.109970,0.098450,-0.739014,1.348373,8.852798
2019-01-28 22:05:59:559,-0.172058,-0.109970,0.098450,-0.405212,1.219177,8.893463
2019-01-28 22:05:59:559,-0.176575,-0.006912,0.094376,-0.405212,1.219177,8.893463
2019-01-28 22:05:59:559,-0.176575,-0.006912,0.094376,0.027893,0.996643,8.737946
2019-01-28 22:05:59:559,-0.176575,-0.006912,0.094376,0.257599,0.685577,8.973633
2019-01-28 22:05:59:559,-0.176575,-0.006912,0.094376,0.423904,0.494141,9.911621
2019-01-28 22:05:59:559,-0.176575,-0.006912,0.094376,0.443039,0.646088,10.321991
2019-01-28 22:05:59:559,-0.176575,-0.006912,0.094376,0.330582,0.689163,10.484695
2019-01-28 22:05:59:559,-0.176575,-0.006912,0.094376,0.001572,0.384079,10.336334
2019-01-28 22:05:59:559,-0.176575,-0.006912,0.094376,0.086517,0.178284,9.947510
2019-01-28 22:05:59:559,-0.176575,-0.006912,0.094376,-0.232925,0.528839,9.863754
2019-01-28 22:05:59:559,-0.176575,-0.006912,0.094376,-0.243698,0.758545,9.446213
2019-01-28 22:05:59:559,-0.176575,-0.006912,0.094376,-0.316681,1.031326,9.101654
2019-01-28 22:06:00:60,-0.104675,-0.010635,0.146652,-0.316681,1.031326,9.101654
2019-01-28 22:06:00:60,-0.104675,-0.010635,0.146652,-0.846695,1.554169,9.490479
2019-01-28 22:06:00:60,-0.104675,-0.010635,0.146652,-0.677994,1.392654,9.716599
2019-01-28 22:06:00:60,-0.104675,-0.010635,0.146652,-0.018784,0.594635,9.969040
2019-01-28 22:06:00:60,-0.104675,-0.010635,0.146652,0.480133,0.252472,10.706024
2019-01-28 22:06:00:60,-0.104675,-0.010635,0.146652,0.225296,0.670013,10.928574
2019-01-28 22:06:00:60,-0.104675,-0.010635,0.146652,0.013535,1.299332,9.982208
2019-01-28 22:06:00:60,-0.104675,-0.010635,0.146652,0.122406,1.200027,8.696060
2019-01-28 22:06:00:60,-0.104675,-0.010635,0.146652,0.382034,0.540802,9.020294
2019-01-28 22:06:00:60,-0.104675,-0.010635,0.146652,0.338959,0.031128,10.451202
2019-01-28 22:06:00:60,-0.014709,0.109879,0.126617,0.338959,0.031128,10.451202
2019-01-28 22:06:00:60,-0.014709,0.109879,0.126617,0.833069,0.011993,10.983597
2019-01-28 22:06:00:60,-0.014709,0.109879,0.126617,0.684723,0.498932,9.994171
2019-01-28 22:06:00:60,-0.014709,0.109879,0.126617,-0.138412,0.997833,8.998764
2019-01-28 22:06:00:60,-0.014709,0.109879,0.126617,-0.576309,1.064835,8.746307
2019-01-28 22:06:00:60,-0.014709,0.109879,0.126617,-0.344208,0.526443,9.433044
2019-01-28 22:06:00:60,-0.014709,0.109879,0.126617,-0.112091,-0.011948,10.119781
2019-01-28 22:06:00:60,-0.014709,0.109879,0.126617,-0.344193,0.227341,9.445007
2019-01-28 22:06:00:60,-0.014709,0.109879,0.126617,-0.107315,0.122055,9.126770
2019-01-28 22:06:00:60,-0.014709,0.109879,0.126617,-0.002029,-0.155518,10.476318
2019-01-28 22:06:00:60,-0.014709,0.109879,0.126617,-0.212585,-0.246445,10.289673
2019-01-28 22:06:00:60,-0.014709,0.109879,0.126617,-0.459061,-0.023911,9.143509
2019-01-28 22:06:00:60,-0.014709,0.109879,0.126617,-0.399231,0.591049,8.923370
2019-01-28 22:06:00:60,0.270142,0.166504,-0.042206,-0.399231,0.591049,8.923370
2019-01-28 22:06:00:60,0.270142,0.166504,-0.042206,-0.511688,1.220367,9.311020
2019-01-28 22:06:00:60,0.270142,0.166504,-0.042206,-0.650482,1.304108,10.119781
2019-01-28 22:06:00:60,0.270142,0.166504,-0.042206,-0.813187,1.392639,9.815903
2019-01-28 22:06:00:60,0.270142,0.166504,-0.042206,-0.605011,1.493149,9.545517
2019-01-28 22:06:00:60,0.270142,0.166504,-0.042206,-0.188660,1.488358,9.595764
2019-01-28 22:06:00:60,0.270142,0.166504,-0.042206,-0.097733,1.380676,9.442612
2019-01-28 22:06:00:60,0.270142,0.166504,-0.042206,-0.212585,1.162933,9.696259
2019-01-28 22:06:00:60,0.270142,0.166504,-0.042206,-0.286774,1.062439,9.890076
2019-01-28 22:06:00:60,0.270142,0.166504,-0.042206,-0.250885,0.966721,9.521576
2019-01-28 22:06:00:60,-0.142242,0.060333,-0.025040,-0.250885,0.966721,9.521576
2019-01-28 22:06:00:60,-0.142242,0.060333,-0.025040,-0.181488,0.772903,9.157867
2019-01-28 22:06:00:60,-0.142242,0.060333,-0.025040,-0.054672,0.655655,9.083694
2019-01-28 22:06:00:60,-0.142242,0.060333,-0.025040,0.057800,0.753769,9.571838
2019-01-28 22:06:00:60,-0.142242,0.060333,-0.025040,0.222900,0.990646,9.928360
2019-01-28 22:06:00:60,-0.142242,0.060333,-0.025040,-0.133636,1.119858,10.308823
2019-01-28 22:06:00:60,-0.142242,0.060333,-0.025040,-0.348984,1.060043,10.129364
2019-01-28 22:06:00:60,-0.142242,0.060333,-0.025040,-0.427948,0.990646,9.708221
2019-01-28 22:06:00:60,-0.142242,0.060333,-0.025040,-0.193451,0.993042,9.595764
2019-01-28 22:06:00:60,-0.142242,0.060333,-0.025040,0.160690,0.928436,10.160461
2019-01-28 22:06:00:60,-0.088730,-0.086868,0.010986,0.160690,0.928436,10.160461
2019-01-28 22:06:01:61,-0.088730,-0.086868,0.010986,0.000366,1.141403,10.770630
2019-01-28 22:06:01:61,-0.088730,-0.086868,0.010986,-0.468628,1.603210,11.227661
2019-01-28 22:06:01:61,-0.088730,-0.086868,0.010986,-1.215179,1.454865,10.588776
2019-01-28 22:06:01:61,-0.088730,-0.086868,0.010986,-0.664841,1.115082,9.586182
2019-01-28 22:06:01:61,-0.088730,-0.086868,0.010986,0.344940,1.014572,9.212906
2019-01-28 22:06:01:61,-0.088730,-0.086868,0.010986,0.584213,0.945190,9.313400
2019-01-28 22:06:01:61,-0.088730,-0.086868,0.010986,0.488510,0.892548,8.428055
2019-01-28 22:06:01:61,-0.088730,-0.086868,0.010986,0.175049,0.768112,7.760468
2019-01-28 22:06:01:61,-0.088730,-0.086868,0.010986,0.175049,0.768112,7.760468
2019-01-28 22:06:01:61,-0.088730,-0.086868,0.010986,-0.436920,0.448685,8.255783
2019-01-28 22:06:01:61,-0.088730,-0.086868,0.010986,-0.638519,0.422363,9.342133
2019-01-28 22:06:01:61,-0.088730,-0.086868,0.010986,-0.264038,0.687958,10.190384
2019-01-28 22:06:01:61,-0.088730,-0.086868,0.010986,-0.060654,1.238312,9.740540
2019-01-28 22:06:01:61,-0.088730,-0.086868,0.010986,-0.243713,1.584076,9.489288
2019-01-28 22:06:01:61,-0.088730,-0.086868,0.010986,-0.474609,1.355560,9.817108
2019-01-28 22:06:01:61,-0.088730,-0.086868,0.010986,-0.169525,1.040909,9.958282
2019-01-28 22:06:01:61,-0.088730,-0.086868,0.010986,-0.002029,0.949966,10.051590
2019-01-28 22:06:01:61,-0.109253,-0.051376,-0.010025,-0.002029,0.949966,10.051590
2019-01-28 22:06:01:61,-0.109253,-0.051376,-0.010025,0.136765,0.826752,10.202347
2019-01-28 22:06:01:61,-0.109253,-0.051376,-0.010025,0.653610,0.731033,9.928360
2019-01-28 22:06:01:61,-0.109253,-0.051376,-0.010025,0.404755,0.861435,9.515610
2019-01-28 22:06:01:61,-0.109253,-0.051376,-0.010025,-0.146790,1.345978,9.056183
2019-01-28 22:06:01:61,-0.109253,-0.051376,-0.010025,-0.283188,1.763535,8.576416
2019-01-28 22:06:01:61,-0.109253,-0.051376,-0.010025,-0.334625,1.690552,8.834854
2019-01-28 22:06:01:61,-0.109253,-0.051376,-0.010025,0.639252,0.134018,11.076920
2019-01-28 22:06:01:61,-0.109253,-0.051376,-0.010025,0.117615,0.581482,10.045609
2019-01-28 22:06:01:61,-0.109253,-0.051376,-0.010025,-0.088165,0.866226,9.574219
2019-01-28 22:06:01:61,-0.109253,-0.051376,-0.010025,-0.234131,0.918869,8.844421
2019-01-28 22:06:01:61,-0.109253,-0.051376,-0.010025,-0.064240,0.971512,8.526169
2019-01-28 22:06:01:61,-0.109253,-0.051376,-0.010025,0.009933,0.691544,9.488083
2019-01-28 22:06:01:61,-0.109253,-0.051376,-0.010025,0.115219,0.416367,9.763260
2019-01-28 22:06:01:61,-0.016052,-0.053528,-0.125229,0.115219,0.416367,9.763260
2019-01-28 22:06:01:61,-0.016052,-0.053528,-0.125229,0.320999,0.265625,9.854187
2019-01-28 22:06:01:61,-0.016052,-0.053528,-0.125229,0.723007,0.504913,9.102844
2019-01-28 22:06:01:61,-0.016052,-0.053528,-0.125229,0.469360,0.849472,9.119583
2019-01-28 22:06:01:61,-0.016052,-0.053528,-0.125229,0.239655,0.923645,9.409119
2019-01-28 22:06:01:61,-0.016052,-0.053528,-0.125229,0.402359,0.813583,9.404327
2019-01-28 22:06:01:61,-0.016052,-0.053528,-0.125229,-0.090561,1.304108,9.897263
2019-01-28 22:06:01:61,-0.016052,-0.053528,-0.125229,-0.633728,2.153564,9.966644
2019-01-28 22:06:01:61,-0.016052,-0.053528,-0.125229,-0.595444,2.182281,9.330154
2019-01-28 22:06:01:61,-0.016052,-0.053528,-0.125229,0.124802,1.237106,9.531158
2019-01-28 22:06:01:61,-0.040970,-0.033356,-0.126450,0.124802,1.237106,9.531158
2019-01-28 22:06:01:61,-0.040970,-0.033356,-0.126450,0.572250,0.217773,10.818497
2019-01-28 22:06:01:61,-0.040970,-0.033356,-0.126450,0.665573,0.469009,11.586594
2019-01-28 22:06:01:61,-0.040970,-0.033356,-0.126450,0.455002,1.378296,11.742126
2019-01-28 22:06:01:61,-0.040970,-0.033356,-0.126450,-0.102524,1.820953,9.947510
2019-01-28 22:06:01:61,-0.040970,-0.033356,-0.126450,-0.131241,1.507507,8.643417
2019-01-28 22:06:01:61,-0.040970,-0.033356,-0.126450,0.196579,1.040894,9.145905
2019-01-28 22:06:01:61,-0.040970,-0.033356,-0.126450,0.072159,0.818375,9.791977
2019-01-28 22:06:01:61,-0.040970,-0.033356,-0.126450,0.103256,0.710693,9.107620
2019-01-28 22:06:01:61,-0.040970,-0.033356,-0.126450,0.129578,0.782471,8.128967
2019-01-28 22:06:01:61,0.093292,0.025635,-0.064377,0.129578,0.782471,8.128967
2019-01-28 22:06:01:61,0.093292,0.025635,-0.064377,-0.066635,0.796829,8.882706
2019-01-28 22:06:01:61,0.093292,0.025635,-0.064377,0.332977,0.796829,9.894867
2019-01-28 22:06:01:61,0.093292,0.025635,-0.064377,0.407150,0.954758,10.497849
2019-01-28 22:06:01:61,0.093292,0.025635,-0.064377,0.096085,1.191650,10.270538
2019-01-28 22:06:01:61,0.093292,0.025635,-0.064377,0.002762,1.395035,9.047806
2019-01-28 22:06:01:61,0.093292,0.025635,-0.064377,-0.327454,1.476395,8.102646
2019-01-28 22:06:01:61,0.093292,0.025635,-0.064377,-0.231735,1.311295,7.695862
2019-01-28 22:06:01:61,0.093292,0.025635,-0.064377,-0.085770,1.026550,7.913605
2019-01-28 22:06:01:61,0.093292,0.025635,-0.064377,-0.011597,1.043289,8.346710
2019-01-28 22:06:01:61,-0.061249,-0.103729,0.027359,-0.011597,1.043289,8.346710
2019-01-28 22:06:01:61,-0.061249,-0.103729,0.027359,0.091293,0.808792,8.851593
2019-01-28 22:06:02:62,-0.061249,-0.103729,0.027359,0.596176,0.186661,9.607727
2019-01-28 22:06:02:62,-0.061249,-0.103729,0.027359,0.947922,-0.071762,10.875916
2019-01-28 22:06:02:62,-0.061249,-0.103729,0.027359,0.416718,0.423553,11.988586
2019-01-28 22:06:02:62,-0.061249,-0.103729,0.027359,0.416718,0.423553,11.988586
2019-01-28 22:06:02:62,-0.061249,-0.103729,0.027359,-0.191666,1.685181,10.375229
2019-01-28 22:06:02:62,-0.061249,-0.103729,0.027359,-0.461456,2.032730,9.117203
2019-01-28 22:06:02:62,-0.061249,-0.103729,0.027359,-0.121674,1.593643,9.238037
2019-01-28 22:06:02:62,-0.061249,-0.103729,0.027359,-0.118073,1.271820,10.390182
2019-01-28 22:06:02:62,-0.061249,-0.103729,0.027359,0.293488,1.189255,10.743118
2019-01-28 22:06:02:62,-0.061249,-0.103729,0.027359,0.638062,0.800430,10.280106
2019-01-28 22:06:02:62,-0.061249,-0.103729,0.027359,0.910843,0.445099,10.838837
2019-01-28 22:06:02:62,-0.061249,-0.103729,0.027359,0.656006,0.172318,12.141724
2019-01-28 22:06:02:62,-0.136566,-0.131958,0.099472,0.656006,0.172318,12.141724
2019-01-28 22:06:02:62,-0.136566,-0.131958,0.099472,0.886917,0.088562,12.777023
2019-01-28 22:06:02:62,-0.136566,-0.131958,0.099472,0.740952,0.479782,12.016098
2019-01-28 22:06:02:62,-0.136566,-0.131958,0.099472,0.225296,1.365143,10.463165
2019-01-28 22:06:02:62,-0.136566,-0.131958,0.099472,-0.168320,2.039917,8.566849
2019-01-28 22:06:02:62,-0.136566,-0.131958,0.099472,-0.163544,2.133224,7.141922
2019-01-28 22:06:02:62,-0.136566,-0.131958,0.099472,0.038666,1.579285,7.097656
2019-01-28 22:06:02:62,-0.136566,-0.131958,0.099472,0.516022,0.988266,8.302444
2019-01-28 22:06:02:62,-0.136566,-0.131958,0.099472,0.837860,0.768127,8.613510
2019-01-28 22:06:02:62,-0.136566,-0.131958,0.099472,0.557892,1.008606,7.994965
2019-01-28 22:06:02:62,-0.136566,-0.131958,0.099472,-0.089371,1.483582,7.015106
2019-01-28 22:06:02:62,0.451248,0.130325,-0.065002,-0.089371,1.483582,7.015106
2019-01-28 22:06:02:62,0.451248,0.130325,-0.065002,-0.706711,1.714478,6.329559
2019-01-28 22:06:02:62,0.451248,0.130325,-0.065002,-0.578705,1.470413,6.743530
2019-01-28 22:06:02:62,0.451248,0.130325,-0.065002,-0.009201,0.539612,8.162460
2019-01-28 22:06:02:62,0.451248,0.130325,-0.065002,0.690704,-0.290710,10.461960
2019-01-28 22:06:02:62,0.451248,0.130325,-0.065002,1.105865,-0.424713,12.573624
2019-01-28 22:06:02:62,0.451248,0.130325,-0.065002,1.237457,0.078995,13.046219
2019-01-28 22:06:02:62,0.451248,0.130325,-0.065002,0.894089,0.402023,12.702850
2019-01-28 22:06:02:62,0.451248,0.130325,-0.065002,0.545929,0.715485,12.932556
2019-01-28 22:06:02:62,0.451248,0.130325,-0.065002,0.008743,1.539810,12.663361
2019-01-28 22:06:02:62,-0.286591,-0.144730,-0.041733,0.008743,1.539810,12.663361
2019-01-28 22:06:02:62,-0.286591,-0.144730,-0.041733,-0.512894,2.500519,10.691681
2019-01-28 22:06:02:62,-0.286591,-0.144730,-0.041733,-0.688766,3.194443,7.711426
2019-01-28 22:06:02:62,-0.286591,-0.144730,-0.041733,-0.256866,2.971909,5.830658
2019-01-28 22:06:02:62,-0.286591,-0.144730,-0.041733,0.386810,1.686966,6.513809
2019-01-28 22:06:02:62,-0.286591,-0.144730,-0.041733,0.829483,0.196243,9.040619
2019-01-28 22:06:02:62,-0.286591,-0.144730,-0.041733,1.407349,-0.527603,11.366455
2019-01-28 22:06:02:62,-0.286591,-0.144730,-0.041733,1.279343,0.008408,11.550705
2019-01-28 22:06:02:62,-0.286591,-0.144730,-0.041733,0.050629,1.210800,10.015701
2019-01-28 22:06:02:62,-0.286591,-0.144730,-0.041733,-0.552383,1.332825,8.609924
2019-01-28 22:06:02:62,-0.286591,-0.144730,-0.041733,0.015930,0.526443,9.570648
2019-01-28 22:06:02:62,-0.043777,-0.012115,0.050751,0.015930,0.526443,9.570648
2019-01-28 22:06:03:63,-0.043777,-0.012115,0.050751,0.691895,0.271622,11.304245
2019-01-28 22:06:03:63,-0.043777,-0.012115,0.050751,0.733780,0.905716,10.732361
2019-01-28 22:06:03:63,-0.043777,-0.012115,0.050751,-0.236526,2.071014,8.691284
2019-01-28 22:06:03:63,-0.043777,-0.012115,0.050751,-1.174515,2.836716,6.371429
2019-01-28 22:06:03:63,-0.043777,-0.012115,0.050751,-0.983093,2.116486,5.583008
2019-01-28 22:06:03:63,-0.043777,-0.012115,0.050751,-0.149185,0.431931,8.144516
2019-01-28 22:06:03:63,-0.043777,-0.012115,0.050751,0.866577,-0.399582,11.675125
2019-01-28 22:06:03:63,-0.043777,-0.012115,0.050751,1.480331,-0.035873,12.318802
2019-01-28 22:06:03:63,-0.043777,-0.012115,0.050751,0.651230,0.847092,10.055191
2019-01-28 22:06:03:63,-0.104324,0.061066,0.141037,0.651230,0.847092,10.055191
2019-01-28 22:06:04:64,-0.104324,0.061066,0.141037,-0.320282,1.591248,8.239029
2019-01-28 22:06:04:64,-0.104324,0.061066,0.141037,-0.516495,1.477600,8.568054
2019-01-28 22:06:04:64,-0.104324,0.061066,0.141037,0.060196,0.927246,10.330368
2019-01-28 22:06:04:64,-0.104324,0.061066,0.141037,0.976639,0.660446,11.555481
2019-01-28 22:06:04:64,-0.104324,0.061066,0.141037,1.622696,0.662842,10.917801
2019-01-28 22:06:04:64,-0.104324,0.061066,0.141037,1.183624,0.893738,9.878113
2019-01-28 22:06:04:64,-0.104324,0.061066,0.141037,0.498077,0.970322,9.617294
2019-01-28 22:06:04:64,-0.104324,0.061066,0.141037,0.157104,0.820770,10.140137
2019-01-28 22:06:04:64,-0.104324,0.061066,0.141037,0.352112,0.660446,10.885498
2019-01-28 22:06:04:64,-0.104324,0.061066,0.141037,0.837860,0.143600,10.916595
2019-01-28 22:06:04:64,0.032944,0.080368,0.095047,0.837860,0.143600,10.916595
2019-01-28 22:06:04:64,0.032944,0.080368,0.095047,1.116623,-0.038269,10.435638
2019-01-28 22:06:04:64,0.032944,0.080368,0.095047,0.340149,0.665222,10.321991
2019-01-28 22:06:04:64,0.032944,0.080368,0.095047,-0.401627,1.812592,9.850601
2019-01-28 22:06:04:64,0.032944,0.080368,0.095047,-0.597839,2.567520,8.375427
2019-01-28 22:06:04:64,0.032944,0.080368,0.095047,-0.067841,1.974106,7.218491
2019-01-28 22:06:04:64,0.032944,0.080368,0.095047,0.818710,0.510895,8.560867
2019-01-28 22:06:04:64,0.032944,0.080368,0.095047,1.513824,-0.330185,10.945313
2019-01-28 22:06:04:64,0.032944,0.080368,0.095047,1.499466,-0.171066,11.683502
2019-01-28 22:06:04:64,0.032944,0.080368,0.095047,0.794800,0.372116,9.996552
2019-01-28 22:06:04:64,0.032944,0.080368,0.095047,0.160690,0.760941,8.536942
2019-01-28 22:06:04:64,0.032944,0.080368,0.095047,-0.211395,1.046890,8.635040
2019-01-28 22:06:04:64,0.032944,0.080368,0.095047,-0.344208,1.139008,9.057388
2019-01-28 22:06:04:64,0.009613,0.116348,-0.141418,-0.344208,1.139008,9.057388
2019-01-28 22:06:04:64,0.009613,0.116348,-0.141418,-0.241302,1.197632,8.526169
2019-01-28 22:06:04:64,0.009613,0.116348,-0.141418,-0.206619,1.262238,7.832245
2019-01-28 22:06:04:64,0.009613,0.116348,-0.141418,-0.108505,1.154556,7.957886
2019-01-28 22:06:04:64,0.009613,0.116348,-0.141418,0.220520,0.504913,9.269150
2019-01-28 22:06:04:64,0.009613,0.116348,-0.141418,0.816315,-0.216522,10.917801
2019-01-28 22:06:04:64,0.009613,0.116348,-0.141418,1.396591,-0.646042,12.370239
2019-01-28 22:06:04:64,0.009613,0.116348,-0.141418,1.574844,-0.506058,12.729156
2019-01-28 22:06:04:64,0.009613,0.116348,-0.141418,0.811539,0.253662,11.708633
2019-01-28 22:06:04:64,0.009613,0.116348,-0.141418,-0.234131,1.142609,9.922394
2019-01-28 22:06:04:64,-0.003830,0.098022,-0.140015,-0.234131,1.142609,9.922394
2019-01-28 22:06:04:64,-0.003830,0.098022,-0.140015,-0.616989,1.660645,7.949493
2019-01-28 22:06:04:64,-0.003830,0.098022,-0.140015,-0.762939,1.908295,6.767456
2019-01-28 22:06:04:64,-0.003830,0.098022,-0.140015,-0.454269,1.673813,6.721985
2019-01-28 22:06:04:64,-0.003830,0.098022,-0.140015,0.343735,0.756149,7.567841
2019-01-28 22:06:04:64,-0.003830,0.098022,-0.140015,0.874954,-0.159103,9.428268
2019-01-28 22:06:04:64,-0.003830,0.098022,-0.140015,0.623703,-0.619720,12.080719
2019-01-28 22:06:04:64,-0.003830,0.098022,-0.140015,0.496887,-0.752533,13.523590
2019-01-28 22:06:04:64,-0.003830,0.098022,-0.140015,0.572250,-0.430679,13.232849
2019-01-28 22:06:04:64,-0.003830,0.098022,-0.140015,0.042252,0.522858,10.914215
2019-01-28 22:06:04:64,-0.003830,0.098022,-0.140015,-0.487762,1.476395,8.595566
2019-01-28 22:06:04:64,-0.003830,0.098022,-0.140015,-0.107315,1.244293,7.868149
2019-01-28 22:06:04:64,-0.003830,0.098022,-0.140015,0.572250,-0.430679,13.232849
2019-01-28 22:06:04:64,-0.003830,0.098022,-0.140015,0.297684,0.105911,10.083298
2019-01-28 22:06:04:64,-0.003830,0.098022,-0.140015,0.517212,-0.065781,9.472534
2019-01-28 22:06:04:64,-0.003830,0.098022,-0.140015,0.605759,-0.546738,10.185593
2019-01-28 22:06:04:64,-0.003830,0.098022,-0.140015,0.531586,-0.579041,10.701248
2019-01-28 22:06:04:64,-0.003830,0.098022,-0.140015,0.572250,-0.430679,13.232849
2019-01-28 22:06:04:64,-0.003830,0.098022,-0.140015,0.081726,0.695129,11.385590
2019-01-28 22:06:04:64,-0.003830,0.098022,-0.140015,-0.408798,1.820953,9.538330
2019-01-28 22:06:04:64,-0.003830,0.098022,-0.140015,-0.243698,1.648682,9.655579
2019-01-28 22:06:04:64,-0.003830,0.098022,-0.140015,0.280334,0.863831,10.026474
2019-01-28 22:06:04:64,-0.003830,0.098022,-0.140015,0.490891,0.241699,10.548096
2019-01-28 22:06:04:64,-0.003830,0.098022,-0.140015,0.488510,0.148376,10.533752
2019-01-28 22:06:04:64,-0.003830,0.098022,-0.140015,0.335358,0.430725,9.882904
2019-01-28 22:06:04:64,-0.003830,0.098022,-0.140015,0.249222,0.696335,9.074127
2019-01-28 22:06:04:64,0.049744,-0.039841,-0.032806,0.249222,0.696335,9.074127
2019-01-28 22:06:04:64,0.049744,-0.039841,-0.032806,0.227692,0.492950,8.576416
2019-01-28 22:06:04:64,0.049744,-0.039841,-0.032806,0.268372,0.083771,9.325378
2019-01-28 22:06:04:64,0.049744,-0.039841,-0.032806,0.182220,0.011993,10.584000
2019-01-28 22:06:04:64,0.049744,-0.039841,-0.032806,0.332977,0.476196,11.167847
2019-01-28 22:06:04:64,0.049744,-0.039841,-0.032806,0.091293,1.227539,10.375824
2019-01-28 22:06:04:64,0.049744,-0.039841,-0.032806,0.031479,0.507309,9.655579
2019-01-28 22:06:04:64,0.049744,-0.039841,-0.032806,0.332977,0.271606,9.893677
2019-01-28 22:06:04:64,0.049744,-0.039841,-0.032806,0.720612,0.496536,8.824081
2019-01-28 22:06:04:64,0.049744,-0.039841,-0.032806,0.623703,0.732224,7.910019
2019-01-28 22:06:04:64,0.049744,-0.039841,-0.032806,0.483719,0.522858,7.911224
2019-01-28 22:06:04:64,0.049744,-0.039841,-0.032806,0.681122,0.363739,9.232056
2019-01-28 22:06:04:64,0.049744,-0.039841,-0.032806,0.556702,0.591049,10.756287
2019-01-28 22:06:04:64,0.025986,-0.061035,0.039337,0.556702,0.591049,10.756287
2019-01-28 22:06:04:64,0.025986,-0.061035,0.039337,0.621307,0.571915,10.802948
2019-01-28 22:06:04:64,0.025986,-0.061035,0.039337,0.891693,0.455856,10.260971
2019-01-28 22:06:04:64,0.025986,-0.061035,0.039337,0.541153,1.058853,10.630661
2019-01-28 22:06:04:64,0.025986,-0.061035,0.039337,-0.235321,1.567322,10.337540
2019-01-28 22:06:04:64,0.025986,-0.061035,0.039337,-0.122864,1.191650,9.412720
2019-01-28 22:06:04:64,0.025986,-0.061035,0.039337,0.405960,0.394836,9.388779
2019-01-28 22:06:04:64,0.025986,-0.061035,0.039337,0.827087,-0.059799,10.342316
2019-01-28 22:06:04:64,0.025986,-0.061035,0.039337,0.757706,0.236908,10.676117
2019-01-28 22:06:04:64,0.025986,-0.061035,0.039337,0.306656,0.903320,9.781204
2019-01-28 22:06:04:64,0.025986,-0.061035,0.039337,-0.145599,1.406998,8.644608
2019-01-28 22:06:04:64,0.096405,-0.039658,-0.044159,-0.145599,1.406998,8.644608
2019-01-28 22:06:04:64,0.096405,-0.039658,-0.044159,-0.443497,1.497940,8.365845
2019-01-28 22:06:04:64,0.096405,-0.039658,-0.044159,-0.204224,0.973907,9.053787
2019-01-28 22:06:04:64,0.096405,-0.039658,-0.044159,0.493301,0.610199,9.744110
2019-01-28 22:06:04:64,0.096405,-0.039658,-0.044159,0.427490,1.104309,9.687897
2019-01-28 22:06:04:64,0.096405,-0.039658,-0.044159,0.015930,1.718063,8.685303
2019-01-28 22:06:04:64,0.096405,-0.039658,-0.044159,-0.016388,1.337616,8.079910
2019-01-28 22:06:04:64,0.096405,-0.039658,-0.044159,0.210938,0.184280,9.115997
2019-01-28 22:06:04:64,0.096405,-0.039658,-0.044159,0.449036,-0.245239,10.970444
2019-01-28 22:06:04:64,0.096405,-0.039658,-0.044159,0.592590,0.055069,11.693069
2019-01-28 22:06:04:64,-0.044327,-0.000809,-0.018265,0.592590,0.055069,11.693069
2019-01-28 22:06:04:64,-0.044327,-0.000809,-0.018265,0.528000,0.532425,9.957077
2019-01-28 22:06:04:64,-0.044327,-0.000809,-0.018265,-0.035522,0.912888,8.856384
2019-01-28 22:06:04:64,-0.044327,-0.000809,-0.018265,-0.616974,1.513489,9.285889
2019-01-28 22:06:04:64,-0.044327,-0.000809,-0.018265,-0.536819,1.649872,9.450989
2019-01-28 22:06:04:64,-0.044327,-0.000809,-0.018265,0.350922,0.798035,8.971237
2019-01-28 22:06:04:64,-0.044327,-0.000809,-0.018265,1.127396,-0.303864,9.247604
2019-01-28 22:06:04:64,-0.044327,-0.000809,-0.018265,1.128586,-0.790802,10.758667
2019-01-28 22:06:04:64,-0.044327,-0.000809,-0.018265,0.621307,-0.619720,10.954895
2019-01-28 22:06:04:64,-0.044327,-0.000809,-0.018265,0.123611,-0.466583,9.598160
2019-01-28 22:06:04:64,-0.044327,-0.000809,-0.018265,-0.076202,-0.375656,8.449600
2019-01-28 22:06:04:64,-0.055756,0.057648,-0.030914,-0.076202,-0.375656,8.449600
2019-01-28 22:06:04:64,-0.055756,0.057648,-0.030914,-0.187469,-0.208160,9.076523
2019-01-28 22:06:04:64,-0.055756,0.057648,-0.030914,-0.096542,-0.062195,10.891479
2019-01-28 22:06:04:64,-0.055756,0.057648,-0.030914,0.020706,-0.102875,11.387985
2019-01-28 22:06:05:65,-0.055756,0.057648,-0.030914,0.041046,-0.076553,11.086487
2019-01-28 22:06:05:65,-0.055756,0.057648,-0.030914,0.100861,0.343384,10.666550
2019-01-28 22:06:05:65,-0.055756,0.057648,-0.030914,0.160690,0.763336,10.246613
2019-01-28 22:06:05:65,-0.055756,0.057648,-0.030914,-0.217377,1.146179,9.911606
2019-01-28 22:06:05:65,-0.055756,0.057648,-0.030914,-0.468628,1.112686,9.227264
2019-01-28 22:06:05:65,-0.055756,0.057648,-0.030914,-0.313095,0.696335,8.681702
2019-01-28 22:06:05:65,-0.055756,0.057648,-0.030914,-0.138412,0.062241,9.047806
2019-01-28 22:06:05:65,-0.055756,0.057648,-0.030914,-0.076202,-0.124405,9.691467
2019-01-28 22:06:05:65,-0.055756,0.057648,-0.030914,-0.260452,0.540802,10.086288
2019-01-28 22:06:05:65,0.057373,0.078415,-0.094131,-0.260452,0.540802,10.086288
2019-01-28 22:06:05:65,0.057373,0.078415,-0.094131,-0.147980,1.261047,9.882904
2019-01-28 22:06:05:65,0.057373,0.078415,-0.094131,-0.136017,0.990646,10.050400
2019-01-28 22:06:05:65,0.057373,0.078415,-0.094131,0.009933,0.081375,10.706024
2019-01-28 22:06:05:65,0.057373,0.078415,-0.094131,0.005157,0.098129,11.588974
2019-01-28 22:06:05:65,0.057373,0.078415,-0.094131,-0.145599,0.624542,11.088882
2019-01-28 22:06:05:65,0.057373,0.078415,-0.094131,-0.090561,0.205811,9.830261
2019-01-28 22:06:05:65,0.057373,0.078415,-0.094131,0.086517,-0.215332,9.775223
2019-01-28 22:06:05:65,0.057373,0.078415,-0.094131,-0.028351,-0.375656,10.299255
2019-01-28 22:06:05:65,0.057373,0.078415,-0.094131,-0.212585,-0.220123,9.629257
2019-01-28 22:06:05:65,0.047607,-0.072952,0.121185,-0.212585,-0.220123,9.629257
2019-01-28 22:06:05:65,0.047607,-0.072952,0.121185,-0.339417,0.105301,8.657776
2019-01-28 22:06:05:65,0.047607,-0.072952,0.121185,-0.427948,0.569519,8.607529
2019-01-28 22:06:05:65,0.047607,-0.072952,0.121185,-0.482986,0.935623,9.435440
2019-01-28 22:06:05:65,0.047607,-0.072952,0.121185,-0.270020,1.122253,9.679504
2019-01-28 22:06:05:65,0.047607,-0.072952,0.121185,-0.147980,1.263428,9.559860
2019-01-28 22:06:05:65,0.047607,-0.072952,0.121185,-0.131241,1.418961,9.244019
2019-01-28 22:06:05:65,0.047607,-0.072952,0.121185,0.067368,1.107895,9.677109
2019-01-28 22:06:05:65,0.047607,-0.072952,0.121185,0.830673,0.631729,10.349503
2019-01-28 22:06:05:65,0.047607,-0.072952,0.121185,1.247025,-0.050232,10.560074
2019-01-28 22:06:05:65,-0.245361,-0.078568,0.082947,1.247025,-0.050232,10.560074
2019-01-28 22:06:05:65,-0.245361,-0.078568,0.082947,0.816315,-0.461792,11.019485
2019-01-28 22:06:05:65,-0.245361,-0.078568,0.082947,0.359299,-0.418716,11.744522
2019-01-28 22:06:05:65,-0.245361,-0.078568,0.082947,0.210938,0.134018,10.950104
2019-01-28 22:06:05:65,-0.245361,-0.078568,0.082947,-0.136017,0.667618,9.351700
2019-01-28 22:06:05:65,-0.245361,-0.078568,0.082947,-0.179092,0.437912,8.547699
2019-01-28 22:06:05:65,-0.245361,-0.078568,0.082947,-0.047485,0.291946,9.198547
2019-01-28 22:06:05:65,-0.245361,-0.078568,0.082947,-0.025955,0.308701,10.265747
2019-01-28 22:06:05:65,-0.245361,-0.078568,0.082947,0.383224,0.004807,9.959473
2019-01-28 22:06:05:65,-0.245361,-0.078568,0.082947,0.852219,-0.387619,9.169830
2019-01-28 22:06:05:65,0.069595,0.096008,0.065353,0.852219,-0.387619,9.169830
2019-01-28 22:06:05:65,0.069595,0.096008,0.065353,0.811539,-0.579041,8.552490
2019-01-28 22:06:05:65,0.069595,0.096008,0.065353,0.593796,-0.401978,8.341919
2019-01-28 22:06:05:65,0.069595,0.096008,0.065353,0.354507,0.011993,8.337128
2019-01-28 22:06:05:65,0.069595,0.096008,0.065353,-0.097733,0.217773,8.483093
2019-01-28 22:06:05:65,0.069595,0.096008,0.065353,-0.380096,0.586258,8.270142
2019-01-28 22:06:05:65,0.069595,0.096008,0.065353,-0.506912,1.179688,8.169632
2019-01-28 22:06:05:65,0.069595,0.096008,0.065353,-0.219772,1.076797,9.394760
2019-01-28 22:06:05:65,0.069595,0.096008,0.065353,0.524399,0.323059,10.131760
2019-01-28 22:06:05:65,0.069595,0.096008,0.065353,0.593796,-0.433075,10.792175
2019-01-28 22:06:05:65,0.108688,0.048615,-0.038239,0.593796,-0.433075,10.792175
2019-01-28 22:06:05:65,0.108688,0.048615,-0.038239,0.309036,-0.454620,11.275528
2019-01-28 22:06:05:65,0.108688,0.048615,-0.038239,0.086517,-0.009552,10.732346
2019-01-28 22:06:05:65,0.108688,0.048615,-0.038239,0.153503,0.069412,9.897263
2019-01-28 22:06:05:65,0.108688,0.048615,-0.038239,-0.212585,0.296738,10.330353
2019-01-28 22:06:05:65,0.108688,0.048615,-0.038239,-0.612198,0.722656,10.576813
2019-01-28 22:06:05:65,0.108688,0.048615,-0.038239,-0.865829,0.914078,10.567245
2019-01-28 22:06:05:65,0.108688,0.048615,-0.038239,-0.360947,0.445084,10.466751
2019-01-28 22:06:05:65,0.108688,0.048615,-0.038239,0.553116,-0.069366,9.868546
2019-01-28 22:06:05:65,0.108688,0.048615,-0.038239,0.383224,0.234512,10.416504
2019-01-28 22:06:06:66,-0.088364,0.006699,0.021866,0.383224,0.234512,10.416504
2019-01-28 22:06:06:66,-0.088364,0.006699,0.021866,0.110443,0.684372,10.375824
2019-01-28 22:06:06:66,-0.088364,0.006699,0.021866,-0.083374,0.904510,9.574219
2019-01-28 22:06:06:66,-0.088364,0.006699,0.021866,-0.136017,0.995438,8.980804
2019-01-28 22:06:06:66,-0.088364,0.006699,0.021866,-0.229340,0.804016,9.188980
2019-01-28 22:06:06:66,-0.088364,0.006699,0.021866,-0.037918,0.660446,9.423477
2019-01-28 22:06:06:66,-0.088364,0.006699,0.021866,0.507645,0.222549,9.263153
2019-01-28 22:06:06:66,-0.088364,0.006699,0.021866,0.909637,-0.035873,9.153091
2019-01-28 22:06:06:66,-0.088364,0.006699,0.021866,0.598572,0.291946,9.686691
2019-01-28 22:06:06:66,-0.088364,0.006699,0.021866,0.251617,0.459442,9.892471
2019-01-28 22:06:06:66,0.064453,-0.044357,0.052643,0.251617,0.459442,9.892471
2019-01-28 22:06:06:66,0.064453,-0.044357,0.052643,0.268372,0.301514,9.473724
2019-01-28 22:06:06:66,0.064453,-0.044357,0.052643,0.029083,0.145981,9.914001
2019-01-28 22:06:06:66,0.064453,-0.044357,0.052643,-0.119278,-0.047836,10.763458
2019-01-28 22:06:06:66,0.064453,-0.044357,0.052643,0.347321,-0.076553,11.239624
2019-01-28 22:06:06:66,0.064453,-0.044357,0.052643,0.519608,0.236908,10.402145
2019-01-28 22:06:06:66,0.064453,-0.044357,0.052643,-0.133636,1.062439,9.174622
2019-01-28 22:06:06:66,0.064453,-0.044357,0.052643,-0.693558,1.737213,8.071533
2019-01-28 22:06:06:66,0.064453,-0.044357,0.052643,-0.499725,1.301712,7.698257
2019-01-28 22:06:06:66,0.064453,-0.044357,0.052643,0.316223,0.026337,8.693665
2019-01-28 22:06:06:66,0.064453,-0.044357,0.052643,1.012527,-0.957108,11.328171
2019-01-28 22:06:06:66,0.064453,-0.044357,0.052643,1.352310,-0.851822,13.201752
2019-01-28 22:06:06:66,0.064453,-0.044357,0.052643,0.861786,-0.062195,12.696854
2019-01-28 22:06:06:66,0.064453,-0.044357,0.052643,0.861786,-0.062195,12.696854
2019-01-28 22:06:06:66,0.064453,-0.044357,0.052643,0.344940,0.732834,9.976227
2019-01-28 22:06:06:66,0.064453,-0.044357,0.052643,-0.274811,1.221558,8.982010
2019-01-28 22:06:06:66,0.064453,-0.044357,0.052643,-0.490158,1.367523,8.919785
2019-01-28 22:06:06:66,0.064453,-0.044357,0.052643,-0.167130,1.440506,7.680313
2019-01-28 22:06:06:66,0.064453,-0.044357,0.052643,0.172653,1.313690,6.249405
2019-01-28 22:06:06:66,0.064453,-0.044357,0.052643,0.262390,1.020569,6.290070
2019-01-28 22:06:06:66,0.064453,-0.044357,0.052643,0.443054,0.290756,7.983002
2019-01-28 22:06:06:66,0.064453,-0.044357,0.052643,0.793594,-0.488113,10.429657
2019-01-28 22:06:06:66,0.043350,0.082870,-0.097641,0.793594,-0.488113,10.429657
2019-01-28 22:06:06:66,0.043350,0.082870,-0.097641,0.953918,-0.820709,12.915802
2019-01-28 22:06:06:66,0.043350,0.082870,-0.097641,0.721802,-0.266785,13.151489
2019-01-28 22:06:06:66,0.043350,0.082870,-0.097641,-0.033127,0.428345,11.389191
2019-01-28 22:06:06:66,0.043350,0.082870,-0.097641,-0.493759,0.601822,10.115005
2019-01-28 22:06:06:66,0.043350,0.082870,-0.097641,-0.559555,0.547974,10.430862
2019-01-28 22:06:06:66,0.043350,0.082870,-0.097641,-0.427948,0.665237,10.405731
2019-01-28 22:06:06:66,0.043350,0.082870,-0.097641,-0.325058,0.921265,9.361267
2019-01-28 22:06:06:66,0.043350,0.082870,-0.097641,-0.091766,0.997833,7.835846
2019-01-28 22:06:06:66,0.043350,0.082870,-0.097641,-0.052277,0.915283,7.425476
2019-01-28 22:06:06:66,0.043350,0.082870,-0.097641,-0.228149,0.731033,8.986786
2019-01-28 22:06:06:66,0.052490,0.072372,-0.200119,-0.228149,0.731033,8.986786
2019-01-28 22:06:06:66,0.052490,0.072372,-0.200119,0.176239,0.437912,10.160477
2019-01-28 22:06:06:66,0.052490,0.072372,-0.200119,0.352112,0.119675,10.454788
2019-01-28 22:06:06:66,0.052490,0.072372,-0.200119,0.343735,-0.096893,9.994171
2019-01-28 22:06:06:66,0.052490,0.072372,-0.200119,0.249222,-0.066986,9.702240
2019-01-28 22:06:06:66,0.052490,0.072372,-0.200119,-0.067825,0.314682,10.259781
2019-01-28 22:06:06:66,0.052490,0.072372,-0.200119,-0.266434,0.715485,10.397354
2019-01-28 22:06:06:66,0.052490,0.072372,-0.200119,-0.298737,0.845886,9.752502
2019-01-28 22:06:06:66,0.052490,0.072372,-0.200119,-0.204224,0.613785,9.692673
2019-01-28 22:06:06:66,0.052490,0.072372,-0.200119,-0.124054,0.323059,9.967850
2019-01-28 22:06:06:66,0.017181,-0.051376,-0.111664,-0.124054,0.323059,9.967850
2019-01-28 22:06:06:66,0.017181,-0.051376,-0.111664,-0.136017,0.263229,10.065948
2019-01-28 22:06:06:66,0.017181,-0.051376,-0.111664,-0.194656,0.436722,9.711823
2019-01-28 22:06:06:66,0.017181,-0.051376,-0.111664,-0.423172,0.653275,9.465363
2019-01-28 22:06:06:66,0.017181,-0.051376,-0.111664,-0.445892,0.885361,9.599350
2019-01-28 22:06:07:67,0.017181,-0.051376,-0.111664,-0.206619,0.802826,10.022873
2019-01-28 22:06:07:67,0.017181,-0.051376,-0.111664,-0.028351,0.443893,10.379410
2019-01-28 22:06:07:67,0.017181,-0.051376,-0.111664,-0.018768,0.229736,10.126968
2019-01-28 22:06:07:67,0.017181,-0.051376,-0.111664,0.076935,0.323059,9.588577
2019-01-28 22:06:07:67,0.017181,-0.051376,-0.111664,0.079330,0.045486,9.861359
2019-01-28 22:06:07:67,0.017181,-0.051376,-0.111664,0.012329,0.148376,9.643616
2019-01-28 22:06:07:67,0.017181,-0.051376,-0.111664,-0.145599,0.445084,9.117203
2019-01-28 22:06:07:67,0.017181,-0.051376,-0.111664,-0.057053,0.485764,9.148300
2019-01-28 22:06:07:67,0.017181,-0.051376,-0.111664,-0.121658,0.478592,9.674728
2019-01-28 22:06:07:67,0.017181,-0.051376,-0.111664,-0.212585,0.421158,10.258575
2019-01-28 22:06:07:67,-0.024719,-0.066956,-0.036407,-0.212585,0.421158,10.258575
2019-01-28 22:06:07:67,-0.024719,-0.066956,-0.036407,-0.080994,0.294342,9.964249
2019-01-28 22:06:07:67,-0.024719,-0.066956,-0.036407,0.134369,-0.066971,9.557480
2019-01-28 22:06:07:67,-0.024719,-0.066956,-0.036407,0.239655,-0.358902,9.681900
2019-01-28 22:06:07:67,-0.024719,-0.066956,-0.036407,0.160690,-0.490509,9.703430
2019-01-28 22:06:07:67,-0.024719,-0.066956,-0.036407,0.033875,-0.361298,9.571838
2019-01-28 22:06:07:67,-0.024719,-0.066956,-0.036407,-0.138412,-0.066971,9.083694
2019-01-28 22:06:07:67,-0.024719,-0.066956,-0.036407,-0.219772,-0.167480,9.074127
2019-01-28 22:06:07:67,-0.024719,-0.066956,-0.036407,-0.188660,-0.205765,9.540726
2019-01-28 22:06:07:67,-0.024719,-0.066956,-0.036407,-0.358551,0.495331,9.904434
2019-01-28 22:06:07:67,0.160492,-0.056335,-0.016251,-0.358551,0.495331,9.904434
2019-01-28 22:06:07:67,0.160492,-0.056335,-0.016251,-0.791656,1.332825,10.045609
2019-01-28 22:06:07:67,0.160492,-0.056335,-0.016251,-0.616974,1.672607,9.710617
2019-01-28 22:06:07:67,0.160492,-0.056335,-0.016251,-0.329834,1.251465,9.624481
2019-01-28 22:06:07:67,0.160492,-0.056335,-0.016251,-0.109695,0.660446,9.655579
2019-01-28 22:06:07:67,0.160492,-0.056335,-0.016251,0.452606,0.478592,9.808716
2019-01-28 22:06:07:67,0.160492,-0.056335,-0.016251,0.222900,0.504913,9.650803
2019-01-28 22:06:07:67,0.160492,-0.056335,-0.016251,-0.136017,0.150772,9.397156
2019-01-28 22:06:07:67,0.160492,-0.056335,-0.016251,-0.138412,-0.074158,9.342117
2019-01-28 22:06:07:67,0.160492,-0.056335,-0.016251,-0.076202,0.019165,9.614899
2019-01-28 22:06:07:67,-0.144806,-0.125107,0.054855,-0.076202,0.019165,9.614899
2019-01-28 22:06:07:67,-0.144806,-0.125107,0.054855,-0.147980,0.375702,10.002533
2019-01-28 22:06:07:67,-0.144806,-0.125107,0.054855,-0.011597,0.631729,9.655579
2019-01-28 22:06:07:67,-0.144806,-0.125107,0.054855,0.103256,0.555161,9.672333
2019-01-28 22:06:07:67,-0.144806,-0.125107,0.054855,0.234863,0.299118,10.119781
2019-01-28 22:06:07:67,-0.144806,-0.125107,0.054855,0.352112,0.150772,10.189178
2019-01-28 22:06:07:67,-0.144806,-0.125107,0.054855,0.282715,0.071808,10.201141
2019-01-28 22:06:07:67,-0.144806,-0.125107,0.054855,0.332977,-0.239258,9.722580
2019-01-28 22:06:07:67,-0.144806,-0.125107,0.054855,0.220505,-0.291901,9.648407
2019-01-28 22:06:07:67,-0.144806,-0.125107,0.054855,-0.203018,0.268021,9.626862
2019-01-28 22:06:07:67,0.117599,-0.071106,0.174072,-0.203018,0.268021,9.626862
2019-01-28 22:06:07:67,0.117599,-0.071106,0.174072,-0.896942,0.873398,9.547897
2019-01-28 22:06:07:67,0.117599,-0.071106,0.174072,-0.612198,0.847076,9.521576
2019-01-28 22:06:07:67,0.117599,-0.071106,0.174072,-0.411194,1.019363,9.595764
2019-01-28 22:06:07:67,0.117599,-0.071106,0.174072,-0.504517,1.473999,9.818298
2019-01-28 22:06:07:67,0.117599,-0.071106,0.174072,-0.203018,1.418961,9.763260
2019-01-28 22:06:07:67,0.117599,-0.071106,0.174072,0.268372,0.854263,9.703430
2019-01-28 22:06:07:67,0.117599,-0.071106,0.174072,0.421509,0.382874,10.440430
2019-01-28 22:06:07:67,0.117599,-0.071106,0.174072,0.457397,0.165131,10.878311
2019-01-28 22:06:07:67,0.117599,-0.071106,0.174072,0.395187,0.318268,10.502640
2019-01-28 22:06:08:68,-0.043533,-0.001114,0.226120,0.395187,0.318268,10.502640
2019-01-28 22:06:08:68,-0.043533,-0.001114,0.226120,0.376038,0.413986,9.468933
2019-01-28 22:06:08:68,-0.043533,-0.001114,0.226120,0.373642,0.330231,8.820480
2019-01-28 22:06:08:68,-0.043533,-0.001114,0.226120,0.301865,-0.004761,9.389984
2019-01-28 22:06:08:68,-0.043533,-0.001114,0.226120,0.270752,0.035919,9.981003
2019-01-28 22:06:08:68,-0.043533,-0.001114,0.226120,0.316223,0.459442,9.806335
2019-01-28 22:06:08:68,-0.043533,-0.001114,0.226120,0.246826,0.729828,9.456970
2019-01-28 22:06:08:68,-0.043533,-0.001114,0.226120,0.014725,0.701126,9.588577
2019-01-28 22:06:08:68,-0.043533,-0.001114,0.226120,-0.085770,0.672409,9.179413
2019-01-28 22:06:08:68,-0.043533,-0.001114,0.226120,0.124802,0.409195,9.392365
2019-01-28 22:06:08:68,0.105011,0.063995,0.082703,0.124802,0.409195,9.392365
2019-01-28 22:06:08:68,0.105011,0.063995,0.082703,0.440643,0.043091,9.492874
2019-01-28 22:06:08:68,0.105011,0.063995,0.082703,0.457397,-0.038269,9.636444
2019-01-28 22:06:08:68,0.105011,0.063995,0.082703,0.287506,-0.069366,9.674728
2019-01-28 22:06:08:68,0.105011,0.063995,0.082703,0.292297,-0.038269,9.813507
2019-01-28 22:06:08:68,0.105011,0.063995,0.082703,0.117615,0.291946,10.493073
2019-01-28 22:06:08:68,0.105011,0.063995,0.082703,-0.150375,1.079178,10.079117
2019-01-28 22:06:08:68,0.105011,0.063995,0.082703,-0.291550,1.411789,9.521576
2019-01-28 22:06:08:68,0.105011,0.063995,0.082703,-0.267624,1.258652,9.825470
2019-01-28 22:06:08:68,0.105011,0.063995,0.082703,-0.052277,0.823151,10.248993
2019-01-28 22:06:08:68,-0.038651,0.061554,0.167480,-0.052277,0.823151,10.248993
2019-01-28 22:06:08:68,-0.038651,0.061554,0.167480,0.127182,0.514481,10.593567
2019-01-28 22:06:08:68,-0.038651,0.061554,0.167480,0.234863,0.514481,10.605530
2019-01-28 22:06:08:68,-0.038651,0.061554,0.167480,0.258789,0.758545,10.217896
2019-01-28 22:06:08:68,-0.038651,0.061554,0.167480,-0.140808,1.198822,8.971237
2019-01-28 22:06:08:68,-0.038651,0.061554,0.167480,-0.267624,1.048080,8.148102
2019-01-28 22:06:08:68,-0.038651,0.061554,0.167480,0.347321,0.524048,8.700851
2019-01-28 22:06:08:68,-0.038651,0.061554,0.167480,0.938354,0.129242,9.657974
2019-01-28 22:06:08:68,-0.038651,0.061554,0.167480,0.935959,-0.009552,10.371033
2019-01-28 22:06:08:68,-0.038651,0.061554,0.167480,0.907242,0.122055,10.540924
2019-01-28 22:06:08:68,-0.038651,0.061554,0.167480,0.316223,0.672409,10.186783
2019-01-28 22:06:08:68,-0.038651,0.061554,0.167480,-0.136017,1.153366,9.562256
2019-01-28 22:06:08:68,-0.038651,0.061554,0.167480,-0.021164,0.952362,9.021484
2019-01-28 22:06:08:68,-0.038651,0.061554,0.167480,-0.021164,0.952362,9.021484
2019-01-28 22:06:08:68,-0.038651,0.061554,0.167480,0.021896,0.487564,9.886490
2019-01-28 22:06:08:68,-0.038651,0.061554,0.167480,0.122406,0.380478,9.736938
2019-01-28 22:06:08:68,-0.038651,0.061554,0.167480,0.045837,0.492950,8.930557
2019-01-28 22:06:08:68,-0.038651,0.061554,0.167480,0.100876,0.429535,9.297852
2019-01-28 22:06:08:68,-0.038651,0.061554,0.167480,0.128387,0.374512,10.192780
2019-01-28 22:06:08:68,-0.038651,0.061554,0.167480,0.142746,0.741791,10.396164
2019-01-28 22:06:08:68,-0.038651,0.061554,0.167480,-0.286774,1.317276,9.325378
2019-01-28 22:06:08:68,-0.038651,0.061554,0.167480,-0.749786,1.506317,8.088287
2019-01-28 22:06:08:68,0.062134,0.067474,0.051575,-0.749786,1.506317,8.088287
2019-01-28 22:06:08:68,0.062134,0.067474,0.051575,-0.444702,0.927246,8.522583
2019-01-28 22:06:08:68,0.062134,0.067474,0.051575,0.386810,-0.133972,10.427277
2019-01-28 22:06:08:68,0.062134,0.067474,0.051575,0.971863,-0.733383,12.048401
2019-01-28 22:06:08:68,0.062134,0.067474,0.051575,1.138168,-0.264389,11.403534
2019-01-28 22:06:08:68,0.062134,0.067474,0.051575,0.644043,0.501312,9.995361
2019-01-28 22:06:08:68,0.062134,0.067474,0.051575,-0.235336,0.973907,9.339737
2019-01-28 22:06:08:68,0.062134,0.067474,0.051575,-0.575104,1.300522,9.416306
2019-01-28 22:06:08:68,0.062134,0.067474,0.051575,-0.419571,1.487167,9.693863
2019-01-28 22:06:08:68,0.062134,0.067474,0.051575,-0.076202,1.106705,9.208130
2019-01-28 22:06:08:68,0.062134,0.067474,0.051575,0.416718,0.320663,8.542923
2019-01-28 22:06:09:69,-0.027725,0.037247,-0.025406,0.416718,0.320663,8.542923
2019-01-28 22:06:09:69,-0.027725,0.037247,-0.025406,0.541153,0.001221,8.959274
2019-01-28 22:06:09:69,-0.027725,0.037247,-0.025406,0.122406,0.480988,9.321793
2019-01-28 22:06:09:69,-0.027725,0.037247,-0.025406,-0.011597,0.958344,8.642227
2019-01-28 22:06:09:69,-0.027725,0.037247,-0.025406,-0.022369,0.777695,8.959274
2019-01-28 22:06:09:69,-0.027725,0.037247,-0.025406,0.175049,-0.074158,11.021881
2019-01-28 22:06:09:69,-0.027725,0.037247,-0.025406,0.559097,-0.527603,12.690887
2019-01-28 22:06:09:69,-0.027725,0.037247,-0.025406,0.215729,0.020370,11.176224
2019-01-28 22:06:09:69,-0.027725,0.037247,-0.025406,-0.486572,0.847092,9.602951
2019-01-28 22:06:09:69,-0.027725,0.037247,-0.025406,-0.618179,1.019363,8.425674
2019-01-28 22:06:09:69,-0.017151,0.016113,-0.100723,-0.618179,1.019363,8.425674
2019-01-28 22:06:09:69,-0.017151,0.016113,-0.100723,-0.651672,0.800415,8.785797
2019-01-28 22:06:09:69,-0.017151,0.016113,-0.100723,-0.462646,0.692749,9.809921
2019-01-28 22:06:09:69,-0.017151,0.016113,-0.100723,0.024292,0.664032,9.942719
2019-01-28 22:06:09:69,-0.017151,0.016113,-0.100723,0.354507,0.440308,9.654388
2019-01-28 22:06:09:69,-0.017151,0.016113,-0.100723,0.511230,0.226151,10.406937
2019-01-28 22:06:09:69,-0.017151,0.016113,-0.100723,0.321014,0.391251,10.516998
2019-01-28 22:06:09:69,-0.017151,0.016113,-0.100723,0.050629,0.692749,9.721390
2019-01-28 22:06:09:69,-0.017151,0.016113,-0.100723,-0.042709,0.524048,9.526367
2019-01-28 22:06:09:69,-0.017151,0.016113,-0.100723,-0.199432,0.400818,9.590973
2019-01-28 22:06:09:69,-0.017151,0.016113,-0.100723,-0.442307,0.634125,9.576614
2019-01-28 22:06:09:69,0.007050,-0.066360,-0.107574,-0.442307,0.634125,9.576614
2019-01-28 22:06:09:69,0.007050,-0.066360,-0.107574,-0.457870,0.985870,9.283508
2019-01-28 22:06:09:69,0.007050,-0.066360,-0.107574,-0.740219,1.402222,9.190186
2019-01-28 22:06:09:69,0.007050,-0.066360,-0.107574,-0.779694,1.749176,9.244019
2019-01-28 22:06:09:69,0.007050,-0.066360,-0.107574,0.165466,0.862640,10.053986
2019-01-28 22:06:09:69,0.007050,-0.066360,-0.107574,1.110641,-0.023911,10.863953
2019-01-28 22:06:09:69,0.007050,-0.066360,-0.107574,0.957504,0.090942,10.138931
2019-01-28 22:06:09:69,0.007050,-0.066360,-0.107574,0.624893,0.567123,9.574219
2019-01-28 22:06:09:69,0.007050,-0.066360,-0.107574,0.395187,0.911682,9.921188
2019-01-28 22:06:09:69,0.007050,-0.066360,-0.107574,0.045837,0.890152,10.332748
2019-01-28 22:06:09:69,0.007050,-0.066360,-0.107574,-0.126450,0.603012,10.182007
2019-01-28 22:06:09:69,0.007050,-0.066360,-0.107574,-0.394455,0.325439,9.899643
2019-01-28 22:06:09:69,0.050659,-0.204651,0.053009,-0.394455,0.325439,9.899643
2019-01-28 22:06:09:69,0.050659,-0.204651,0.053009,-0.219772,0.655655,10.004929
2019-01-28 22:06:09:69,0.050659,-0.204651,0.053009,-0.116882,0.957153,9.691467
2019-01-28 22:06:09:69,0.050659,-0.204651,0.053009,-0.176697,1.270615,8.602737
2019-01-28 22:06:09:69,0.050659,-0.204651,0.053009,-0.013992,1.299332,7.913605
2019-01-28 22:06:09:69,0.050659,-0.204651,0.053009,0.823502,1.007401,7.499649
2019-01-28 22:06:09:69,0.050659,-0.204651,0.053009,1.404953,0.808792,8.497452
2019-01-28 22:06:09:69,0.050659,-0.204651,0.053009,0.780426,0.837509,9.598160
2019-01-28 22:06:09:69,0.050659,-0.204651,0.053009,0.452606,0.976288,9.349304
2019-01-28 22:06:09:69,0.050659,-0.204651,0.053009,0.352112,0.588654,9.547897
2019-01-28 22:06:09:69,-0.092896,-0.123520,0.285263,0.352112,0.588654,9.547897
2019-01-28 22:06:09:69,-0.092896,-0.123520,0.285263,0.526794,0.112488,10.299255
2019-01-28 22:06:09:69,-0.092896,-0.123520,0.285263,0.565079,0.215378,11.050598
2019-01-28 22:06:09:69,-0.092896,-0.123520,0.285263,0.196579,0.827942,10.974030
2019-01-28 22:06:09:69,-0.092896,-0.123520,0.285263,-0.272415,1.732422,9.686691
2019-01-28 22:06:09:69,-0.092896,-0.123520,0.285263,-0.552368,1.512283,9.028656
2019-01-28 22:06:09:69,-0.092896,-0.123520,0.285263,0.189407,0.332626,9.445007
2019-01-28 22:06:09:69,-0.092896,-0.123520,0.285263,1.431274,-0.634079,11.237244
2019-01-28 22:06:09:69,-0.092896,-0.123520,0.285263,1.972061,-0.622116,11.825867
2019-01-28 22:06:09:69,-0.092896,-0.123520,0.285263,1.498276,0.098129,10.698853
2019-01-28 22:06:09:69,-0.092896,-0.123520,0.285263,0.567474,1.246689,9.083694
2019-01-28 22:06:09:69,-0.092896,-0.123520,0.285263,-0.229340,2.038712,7.951889
2019-01-28 22:06:09:69,0.020599,0.105545,0.098099,-0.229340,2.038712,7.951889
2019-01-28 22:06:10:610,0.020599,0.105545,0.098099,0.938354,0.033524,10.069550
2019-01-28 22:06:10:610,0.020599,0.105545,0.098099,0.762482,-0.066971,9.648407
2019-01-28 22:06:10:610,0.020599,0.105545,0.098099,0.287521,0.159149,8.602737
2019-01-28 22:06:10:610,0.020599,0.105545,0.098099,-0.010406,0.461838,7.939926
2019-01-28 22:06:10:610,0.020599,0.105545,0.098099,-0.244904,0.820770,8.521378
2019-01-28 22:06:10:610,0.020599,0.105545,0.098099,-0.155167,0.981079,9.015503
2019-01-28 22:06:10:610,0.020599,0.105545,0.098099,-0.063049,1.146194,9.092072
2019-01-28 22:06:10:610,-0.039688,0.148056,-0.110504,-0.063049,1.146194,9.092072
2019-01-28 22:06:10:610,-0.039688,0.148056,-0.110504,-0.162338,1.131836,9.404343
2019-01-28 22:06:10:610,-0.039688,0.148056,-0.110504,0.452621,0.301514,10.252594
2019-01-28 22:06:10:610,-0.039688,0.148056,-0.110504,1.382233,-1.083939,11.200150
2019-01-28 22:06:10:610,-0.039688,0.148056,-0.110504,1.556900,-1.423721,12.258972
2019-01-28 22:06:10:610,-0.039688,0.148056,-0.110504,0.664383,-0.457016,11.658386
2019-01-28 22:06:10:610,-0.039688,0.148056,-0.110504,-0.844299,0.890152,9.271530
2019-01-28 22:06:10:610,-0.039688,0.148056,-0.110504,-1.911499,1.624756,7.437439
2019-01-28 22:06:10:610,-0.039688,0.148056,-0.110504,-0.654068,0.344589,9.131546
2019-01-28 22:06:10:610,-0.039688,0.148056,-0.110504,0.603363,-0.935577,10.825668
2019-01-28 22:06:10:610,-0.039688,0.148056,-0.110504,0.861786,-0.605362,9.325378
2019-01-28 22:06:10:610,-0.039688,0.148056,-0.110504,-1.911499,1.624756,7.437439
2019-01-28 22:06:10:610,-0.039688,0.148056,-0.110504,-1.272614,1.373505,8.137344
2019-01-28 22:06:10:610,-0.039688,0.148056,-0.110504,-0.920883,1.025345,8.754684
2019-01-28 22:06:10:610,-0.039688,0.148056,-0.110504,-0.691162,0.128036,10.810120
2019-01-28 22:06:10:610,-0.039688,0.148056,-0.110504,-0.031937,-0.484528,11.239639
2019-01-28 22:06:10:610,-0.039688,0.148056,-0.110504,0.160690,-0.562286,9.776428
2019-01-28 22:06:10:610,-0.039688,0.148056,-0.110504,-0.138428,-0.224915,8.536942
2019-01-28 22:06:10:610,-0.039688,0.148056,-0.110504,-0.382492,0.059845,8.000946
2019-01-28 22:06:10:610,-0.039688,0.148056,-0.110504,-0.443512,0.248886,8.558472
2019-01-28 22:06:10:610,0.093384,0.042740,0.005829,-0.443512,0.248886,8.558472
2019-01-28 22:06:10:610,0.093384,0.042740,0.005829,0.045837,0.217773,9.345718
2019-01-28 22:06:10:610,0.093384,0.042740,0.005829,-0.171921,0.241699,10.307632
2019-01-28 22:06:10:610,0.093384,0.042740,0.005829,-0.717484,0.540802,10.822083
2019-01-28 22:06:10:610,0.093384,0.042740,0.005829,-1.246292,0.869812,10.506241
2019-01-28 22:06:10:610,0.093384,0.042740,0.005829,-0.699539,0.746582,9.898453
2019-01-28 22:06:10:610,0.093384,0.042740,0.005829,-0.411194,0.136414,10.100647
2019-01-28 22:06:10:610,0.093384,0.042740,0.005829,-0.545197,0.110092,9.626862
2019-01-28 22:06:10:610,0.093384,0.042740,0.005829,-0.743805,0.492950,9.811111
2019-01-28 22:06:10:610,0.093384,0.042740,0.005829,-0.499725,0.509689,10.246613
2019-01-28 22:06:10:610,0.093384,0.042740,0.005829,-0.069031,0.514481,9.643616
2019-01-28 22:06:10:610,0.093384,0.042740,0.005829,-0.198242,0.303909,9.445007
2019-01-28 22:06:10:610,0.093384,0.042740,0.005829,-0.147980,-0.071762,9.854187
2019-01-28 22:06:10:610,0.093384,0.042740,0.005829,0.158295,-0.138763,9.720184
2019-01-28 22:06:10:610,-0.004440,-0.161774,0.215500,0.158295,-0.138763,9.720184
2019-01-28 22:06:10:610,-0.004440,-0.161774,0.215500,-0.253265,0.330231,9.693863
2019-01-28 22:06:10:610,-0.004440,-0.161774,0.215500,-0.605011,1.024155,9.346909
2019-01-28 22:06:10:610,-0.004440,-0.161774,0.215500,-0.746185,1.040894,8.865952
2019-01-28 22:06:10:610,-0.004440,-0.161774,0.215500,-0.841904,0.289551,9.263153
2019-01-28 22:06:10:610,-0.004440,-0.161774,0.215500,-0.296341,-0.191406,9.925964
2019-01-28 22:06:10:610,-0.004440,-0.161774,0.215500,-0.102524,-0.172256,10.110214
2019-01-28 22:06:10:610,-0.004440,-0.161774,0.215500,0.043442,0.014374,9.605331
2019-01-28 22:06:10:610,-0.004440,-0.161774,0.215500,0.359299,0.169907,9.514404
2019-01-28 22:06:10:610,-0.004440,-0.161774,0.215500,0.103256,0.256058,10.220291
2019-01-28 22:06:11:611,0.105499,-0.081375,0.284286,0.103256,0.256058,10.220291
2019-01-28 22:06:11:611,0.105499,-0.081375,0.284286,-0.258057,0.457047,10.749100
2019-01-28 22:06:11:611,0.105499,-0.081375,0.284286,0.318619,0.653259,10.469147
2019-01-28 22:06:11:611,0.105499,-0.081375,0.284286,0.175049,0.737015,10.115005
2019-01-28 22:06:11:611,0.105499,-0.081375,0.284286,0.033875,0.717865,9.813507
2019-01-28 22:06:11:611,0.105499,-0.081375,0.284286,0.483719,0.459442,9.643616
2019-01-28 22:06:11:611,0.105499,-0.081375,0.284286,0.459793,0.421158,9.681900
2019-01-28 22:06:11:611,0.105499,-0.081375,0.284286,-0.080994,0.815979,9.942719
2019-01-28 22:06:11:611,0.105499,-0.081375,0.284286,-0.217377,1.079178,9.619690
2019-01-28 22:06:11:611,0.105499,-0.081375,0.284286,-0.104919,1.060043,9.768036
2019-01-28 22:06:11:611,0.105499,-0.081375,0.284286,-0.004410,0.945190,10.318390
2019-01-28 22:06:11:611,0.105499,-0.081375,0.284286,-0.083374,0.818375,10.533752
2019-01-28 22:06:11:611,-0.007614,-0.178741,0.564056,-0.083374,0.818375,10.533752
2019-01-28 22:06:11:611,-0.007614,-0.178741,0.564056,1.353516,-0.171066,9.838638
2019-01-28 22:06:11:611,-0.007614,-0.178741,0.564056,0.839050,0.204620,10.065948
2019-01-28 22:06:11:611,-0.007614,-0.178741,0.564056,0.490891,0.952377,9.287094
2019-01-28 22:06:11:611,-0.007614,-0.178741,0.564056,0.319824,1.372314,7.529556
2019-01-28 22:06:11:611,-0.007614,-0.178741,0.564056,0.301865,1.028946,8.057175
2019-01-28 22:06:11:611,-0.007614,-0.178741,0.564056,0.961090,0.120865,10.002548
2019-01-28 22:06:11:611,-0.007614,-0.178741,0.564056,1.509048,-0.473770,10.835251
2019-01-28 22:06:11:611,0.122498,0.131195,0.410004,1.509048,-0.473770,10.835251
2019-01-28 22:06:11:611,0.122498,0.131195,0.410004,1.244644,0.077789,10.118591
2019-01-28 22:06:11:611,0.122498,0.131195,0.410004,0.310242,1.160538,9.291870
2019-01-28 22:06:11:611,0.122498,0.131195,0.410004,-0.413589,1.560150,8.424469
2019-01-28 22:06:11:611,0.122498,0.131195,0.410004,0.157104,0.972702,9.624481
2019-01-28 22:06:11:611,0.122498,0.131195,0.410004,1.097473,0.189056,11.061371
2019-01-28 22:06:11:611,0.122498,0.131195,0.410004,1.912231,-0.100479,10.970444
2019-01-28 22:06:11:611,0.122498,0.131195,0.410004,1.647827,0.017975,9.945114
2019-01-28 22:06:11:611,0.122498,0.131195,0.410004,0.652420,0.685577,8.864761
2019-01-28 22:06:11:611,0.122498,0.131195,0.410004,-0.241318,1.686966,8.084702
2019-01-28 22:06:11:611,0.079361,0.167480,0.192108,-0.241318,1.686966,8.084702
2019-01-28 22:06:11:611,0.079361,0.167480,0.192108,-0.497345,1.987259,8.337143
2019-01-28 22:06:11:611,0.079361,0.167480,0.192108,0.600967,1.201218,9.720200
2019-01-28 22:06:11:611,0.079361,0.167480,0.192108,1.593994,0.088562,11.245621
2019-01-28 22:06:11:611,0.079361,0.167480,0.192108,2.362091,-0.258408,11.716995
2019-01-28 22:06:11:611,0.079361,0.167480,0.192108,1.743546,0.223755,11.176224
2019-01-28 22:06:11:611,0.079361,0.167480,0.192108,0.484924,1.435715,9.579025
2019-01-28 22:06:11:611,0.079361,0.167480,0.192108,-0.482986,2.255264,8.100250
2019-01-28 22:06:11:611,0.079361,0.167480,0.192108,-0.326263,1.726440,8.169647
2019-01-28 22:06:11:611,0.079361,0.167480,0.192108,0.627289,0.375702,10.184402
2019-01-28 22:06:11:611,0.085907,0.258194,-0.259918,0.627289,0.375702,10.184402
2019-01-28 22:06:11:611,0.085907,0.258194,-0.259918,1.604767,-0.124405,11.645218
2019-01-28 22:06:11:611,0.085907,0.258194,-0.259918,1.463577,0.104111,10.755081
2019-01-28 22:06:11:611,0.085907,0.258194,-0.259918,0.477737,0.715485,9.229660
2019-01-28 22:06:11:611,0.085907,0.258194,-0.259918,-0.179092,1.200027,8.968842
2019-01-28 22:06:11:611,0.085907,0.258194,-0.259918,-0.234131,1.217972,9.721390
2019-01-28 22:06:11:611,0.085907,0.258194,-0.259918,0.112839,0.851868,10.651001
2019-01-28 22:06:11:611,0.085907,0.258194,-0.259918,0.656006,0.636520,10.729965
2019-01-28 22:06:11:611,0.085907,0.258194,-0.259918,0.349731,0.890152,10.282501
2019-01-28 22:06:11:611,0.085907,0.258194,-0.259918,-0.305908,1.078003,9.750107
2019-01-28 22:06:11:611,0.085907,0.258194,-0.259918,-0.229355,0.969116,9.756088
2019-01-28 22:06:12:612,0.113449,0.119339,-0.429611,-0.229355,0.969116,9.756088
2019-01-28 22:06:12:612,0.113449,0.119339,-0.429611,0.202560,1.052872,10.653397
2019-01-28 22:06:12:612,0.113449,0.119339,-0.429611,0.393982,1.471619,10.737137
2019-01-28 22:06:12:612,0.113449,0.119339,-0.429611,0.310242,1.752777,9.873322
2019-01-28 22:06:12:612,0.113449,0.119339,-0.429611,0.129578,1.645096,8.942520
2019-01-28 22:06:12:612,0.113449,0.119339,-0.429611,0.151123,1.445297,8.559677
2019-01-28 22:06:12:612,0.113449,0.119339,-0.429611,0.490906,1.393845,8.670944
2019-01-28 22:06:12:612,0.113449,0.119339,-0.429611,0.426300,1.615173,8.217499
2019-01-28 22:06:12:612,0.113449,0.119339,-0.429611,-0.085785,1.756348,7.390778
2019-01-28 22:06:12:612,0.113449,0.119339,-0.429611,-0.211395,1.275406,7.583405
2019-01-28 22:06:12:612,0.064407,-0.127747,-0.335236,-0.211395,1.275406,7.583405
2019-01-28 22:06:12:612,0.064407,-0.127747,-0.335236,-0.008011,0.490555,9.695068
2019-01-28 22:06:12:612,0.064407,-0.127747,-0.335236,0.395187,0.467819,12.252991
2019-01-28 22:06:12:612,0.064407,-0.127747,-0.335236,0.094894,1.407013,12.281708
2019-01-28 22:06:12:612,0.064407,-0.127747,-0.335236,-0.746201,2.470612,10.451202
2019-01-28 22:06:12:612,0.064407,-0.127747,-0.335236,-1.236725,2.831940,9.084900
2019-01-28 22:06:12:612,0.064407,-0.127747,-0.335236,-0.877808,1.903519,9.172226
2019-01-28 22:06:12:612,0.064407,-0.127747,-0.335236,0.140350,0.989456,10.731155
2019-01-28 22:06:12:612,0.064407,-0.127747,-0.335236,0.429886,0.778885,10.767059
2019-01-28 22:06:12:612,0.064407,-0.127747,-0.335236,0.210938,1.195236,8.581207
2019-01-28 22:06:12:612,0.064407,-0.127747,-0.335236,-0.255661,2.002823,6.077118
2019-01-28 22:06:12:612,0.049561,-0.247650,-0.015396,-0.255661,2.002823,6.077118
2019-01-28 22:06:12:612,0.049561,-0.247650,-0.015396,-0.910095,2.778091,4.897461
2019-01-28 22:06:12:612,0.049561,-0.247650,-0.015396,-1.332443,2.770920,6.546112
2019-01-28 22:06:12:612,0.049561,-0.247650,-0.015396,-0.863449,2.114090,9.157883
2019-01-28 22:06:12:612,0.049561,-0.247650,-0.015396,0.250412,1.118668,11.493271
2019-01-28 22:06:12:612,0.049561,-0.247650,-0.015396,1.457596,0.428345,12.936142
2019-01-28 22:06:12:612,0.049561,-0.247650,-0.015396,1.177643,0.731033,12.054398
2019-01-28 22:06:12:612,0.049561,-0.247650,-0.015396,0.374847,1.462036,10.136551
2019-01-28 22:06:12:612,0.049561,-0.247650,-0.015396,-0.472229,1.870026,8.798950
2019-01-28 22:06:12:612,0.049561,-0.247650,-0.015396,-0.873016,1.854462,8.724777
2019-01-28 22:06:12:612,0.052124,-0.371902,0.324478,-0.873016,1.854462,8.724777
2019-01-28 22:06:12:612,0.052124,-0.371902,0.324478,-0.374115,1.612793,8.851593
2019-01-28 22:06:12:612,0.052124,-0.371902,0.324478,-0.004425,1.440506,8.781006
2019-01-28 22:06:12:612,0.052124,-0.371902,0.324478,0.090103,1.647491,8.431656
2019-01-28 22:06:12:612,0.052124,-0.371902,0.324478,-0.191055,1.957352,7.906433
2019-01-28 22:06:12:612,0.052124,-0.371902,0.324478,-0.061844,1.716873,8.127762
2019-01-28 22:06:12:612,0.052124,-0.371902,0.324478,0.250427,0.993042,9.963058
2019-01-28 22:06:12:612,0.052124,-0.371902,0.324478,0.807953,0.398438,12.000549
2019-01-28 22:06:12:612,0.052124,-0.371902,0.324478,1.273346,0.253662,12.158478
2019-01-28 22:06:12:612,0.052124,-0.371902,0.324478,0.738556,0.465439,10.945313
2019-01-28 22:06:12:612,0.052124,-0.371902,0.324478,0.311432,1.092346,9.357681
2019-01-28 22:06:12:612,-0.161789,-0.282410,0.517929,0.311432,1.092346,9.357681
2019-01-28 22:06:12:612,-0.161789,-0.282410,0.517929,-0.320282,1.659454,8.091873
2019-01-28 22:06:12:612,-0.161789,-0.282410,0.517929,-0.554764,1.517075,8.221085
2019-01-28 22:06:12:612,-0.161789,-0.282410,0.517929,0.364075,0.780090,9.474930
2019-01-28 22:06:12:612,-0.161789,-0.282410,0.517929,1.442047,0.413986,10.958481
2019-01-28 22:06:12:612,-0.161789,-0.282410,0.517929,1.444443,0.784866,11.322189
2019-01-28 22:06:12:612,-0.161789,-0.282410,0.517929,0.969467,1.267029,10.528961
2019-01-28 22:06:12:612,-0.161789,-0.282410,0.517929,1.037659,1.200027,9.683105
2019-01-28 22:06:12:612,-0.161789,-0.282410,0.517929,1.677750,0.482178,9.997757
2019-01-28 22:06:12:612,-0.161789,-0.282410,0.517929,2.273560,-0.221313,11.517197
2019-01-28 22:06:12:612,0.007782,-0.141724,0.599121,2.273560,-0.221313,11.517197
2019-01-28 22:06:12:612,0.007782,-0.141724,0.599121,2.441055,-0.801575,13.103638
2019-01-28 22:06:12:612,0.007782,-0.141724,0.599121,2.546326,-0.370865,12.483902
2019-01-28 22:06:12:612,0.007782,-0.141724,0.599121,1.446838,0.713089,10.417694
2019-01-28 22:06:12:612,0.007782,-0.141724,0.599121,0.511246,1.666626,9.008331
2019-01-28 22:06:12:612,0.007782,-0.141724,0.599121,0.303070,1.494339,8.858780
2019-01-28 22:06:12:612,0.007782,-0.141724,0.599121,0.877335,0.781281,10.589981
2019-01-28 22:06:12:612,0.007782,-0.141724,0.599121,1.320023,0.649689,12.056778
2019-01-28 22:06:12:612,0.007782,-0.141724,0.599121,0.629684,0.830338,10.966843
2019-01-28 22:06:12:612,0.007782,-0.141724,0.599121,0.029083,0.854263,9.118393
2019-01-28 22:06:13:613,0.316620,0.422806,0.310669,0.029083,0.854263,9.118393
2019-01-28 22:06:13:613,0.316620,0.422806,0.310669,-0.231735,1.214386,8.648209
2019-01-28 22:06:13:613,0.316620,0.422806,0.310669,-0.224564,1.952576,8.046417
2019-01-28 22:06:13:613,0.316620,0.422806,0.310669,0.373657,2.138016,7.480515
2019-01-28 22:06:13:613,0.316620,0.422806,0.310669,1.117813,0.908096,8.711609
2019-01-28 22:06:13:613,0.316620,0.422806,0.310669,2.207748,-0.446243,11.700256
2019-01-28 22:06:13:613,0.316620,0.422806,0.310669,2.793991,-0.541946,13.610916
2019-01-28 22:06:13:613,0.316620,0.422806,0.310669,1.509048,0.271606,12.426468
2019-01-28 22:06:13:613,0.316620,0.422806,0.310669,-0.191071,1.544601,10.025269
2019-01-28 22:06:13:613,0.316620,0.422806,0.310669,-1.079987,2.344986,8.308426
2019-01-28 22:06:13:613,0.316620,0.422806,0.310669,-0.492554,2.373703,7.494873
2019-01-28 22:06:13:613,0.319611,0.366623,-0.175003,-0.492554,2.373703,7.494873
2019-01-28 22:06:13:613,0.319611,0.366623,-0.175003,-0.022369,1.855652,7.987793
2019-01-28 22:06:13:613,0.319611,0.366623,-0.175003,0.208542,1.313690,8.416107
2019-01-28 22:06:13:613,0.319611,0.366623,-0.175003,0.708649,0.961945,7.521194
2019-01-28 22:06:13:613,0.319611,0.366623,-0.175003,0.904861,0.729843,6.692078
2019-01-28 22:06:13:613,0.319611,0.366623,-0.175003,0.068573,0.799240,6.963654
2019-01-28 22:06:13:613,0.319611,0.366623,-0.175003,-0.753372,1.393845,7.848999
2019-01-28 22:06:13:613,0.319611,0.366623,-0.175003,-1.149384,2.012390,8.124176
2019-01-28 22:06:13:613,0.319611,0.366623,-0.175003,-1.058456,1.859253,8.291672
2019-01-28 22:06:13:613,0.319611,0.366623,-0.175003,-0.490158,0.890152,10.001343
2019-01-28 22:06:13:613,-0.171753,-0.097076,0.054779,-0.490158,0.890152,10.001343
2019-01-28 22:06:13:613,-0.171753,-0.097076,0.054779,0.593796,0.055054,13.182602
2019-01-28 22:06:13:613,-0.171753,-0.097076,0.054779,1.497086,-0.173462,14.035645
2019-01-28 22:06:13:613,-0.171753,-0.097076,0.054779,1.383423,-0.128006,12.300858
2019-01-28 22:06:13:613,-0.171753,-0.097076,0.054779,0.431076,0.108902,10.396164
2019-01-28 22:06:13:613,-0.171753,-0.097076,0.054779,-0.466232,0.762146,8.865952
2019-01-28 22:06:13:613,-0.171753,-0.097076,0.054779,-0.871826,1.316086,7.780807
2019-01-28 22:06:13:613,-0.171753,-0.097076,0.054779,-0.834732,1.702515,7.362061
2019-01-28 22:06:13:613,-0.171753,-0.097076,0.054779,-1.050095,1.804214,7.881302
2019-01-28 22:06:13:613,-0.171753,-0.097076,0.054779,-1.035721,1.523056,8.362259
2019-01-28 22:06:13:613,-0.171753,-0.097076,0.054779,-0.415985,0.905716,8.973633
2019-01-28 22:06:13:613,-0.156967,-0.310257,0.362656,-0.415985,0.905716,8.973633
2019-01-28 22:06:13:613,-0.156967,-0.310257,0.362656,0.907257,0.135223,10.732361
2019-01-28 22:06:13:613,-0.156967,-0.310257,0.362656,1.510239,-0.687912,13.589386
2019-01-28 22:06:13:613,-0.156967,-0.310257,0.362656,1.768661,-0.501282,13.707825
2019-01-28 22:06:13:613,-0.156967,-0.310257,0.362656,0.310242,0.842300,10.451202
2019-01-28 22:06:13:613,-0.156967,-0.310257,0.362656,-1.407806,2.371323,8.877914
2019-01-28 22:06:13:613,-0.156967,-0.310257,0.362656,-1.296555,3.026947,8.596756
2019-01-28 22:06:13:613,-0.156967,-0.310257,0.362656,-0.578705,2.464630,9.864960
2019-01-28 22:06:13:613,-0.156967,-0.310257,0.362656,0.757706,1.704910,11.725372
2019-01-28 22:06:13:613,-0.156967,-0.310257,0.362656,0.908447,1.649872,12.029266
2019-01-28 22:06:13:613,0.092743,-0.075882,0.459961,0.908447,1.649872,12.029266
2019-01-28 22:06:13:613,0.092743,-0.075882,0.459961,1.034073,1.399826,11.338928
2019-01-28 22:06:13:613,0.092743,-0.075882,0.459961,1.463577,0.547989,10.725174
2019-01-28 22:06:13:613,0.092743,-0.075882,0.459961,1.316422,0.202225,10.453598
2019-01-28 22:06:13:613,0.092743,-0.075882,0.459961,0.440643,0.836319,10.092270
2019-01-28 22:06:13:613,0.092743,-0.075882,0.459961,-0.033142,2.197830,8.754684
2019-01-28 22:06:13:613,0.092743,-0.075882,0.459961,-0.935226,2.599823,7.320190
2019-01-28 22:06:13:613,0.092743,-0.075882,0.459961,-0.447098,1.742004,7.265152
2019-01-28 22:06:13:613,0.092743,-0.075882,0.459961,0.250427,0.856659,10.217896
2019-01-28 22:06:13:613,0.092743,-0.075882,0.459961,1.352325,0.349380,12.207535
2019-01-28 22:06:13:613,0.092743,-0.075882,0.459961,1.856003,0.096939,11.822281
2019-01-28 22:06:14:614,0.092743,-0.075882,0.459961,1.147736,-0.005966,10.846008
2019-01-28 22:06:14:614,0.092743,-0.075882,0.459961,0.343735,0.236908,10.233459
2019-01-28 22:06:14:614,0.092743,-0.075882,0.459961,-0.200638,0.809998,9.504837
2019-01-28 22:06:14:614,0.092743,-0.075882,0.459961,-0.599045,1.505112,8.619492
2019-01-28 22:06:14:614,0.092743,-0.075882,0.459961,-0.595444,2.041107,7.840622
2019-01-28 22:06:14:614,0.092743,-0.075882,0.459961,-0.327454,1.981277,7.485291
2019-01-28 22:06:14:614,0.092743,-0.075882,0.459961,0.108047,1.818573,7.985397
2019-01-28 22:06:14:614,0.092743,-0.075882,0.459961,0.194183,1.811386,8.861160
2019-01-28 22:06:14:614,0.092743,-0.075882,0.459961,0.513641,1.599625,9.296661
2019-01-28 22:06:14:614,0.122620,0.061798,0.360519,0.513641,1.599625,9.296661
2019-01-28 22:06:14:614,0.122620,0.061798,0.360519,1.123810,1.081589,9.653198
2019-01-28 22:06:14:614,0.122620,0.061798,0.360519,0.912033,0.692749,10.950104
2019-01-28 22:06:14:614,0.122620,0.061798,0.360519,0.310242,0.722656,12.263763
2019-01-28 22:06:14:614,0.122620,0.061798,0.360519,0.068573,0.818375,12.177628
2019-01-28 22:06:14:614,0.122620,0.061798,0.360519,-0.037918,0.825546,11.062561
2019-01-28 22:06:14:614,0.122620,0.061798,0.360519,-0.195847,1.130630,11.017090
2019-01-28 22:06:14:614,0.122620,0.061798,0.360519,-0.480591,1.250275,11.122391
2019-01-28 22:06:14:614,0.122620,0.061798,0.360519,-0.212601,1.022949,10.020493
2019-01-28 22:06:14:614,0.122620,0.061798,0.360519,-0.232941,1.007401,9.659180
2019-01-28 22:06:14:614,0.018890,0.064987,0.400223,-0.232941,1.007401,9.659180
2019-01-28 22:06:14:614,0.018890,0.064987,0.400223,-0.097748,1.207199,9.126770
2019-01-28 22:06:14:614,0.018890,0.064987,0.400223,0.011139,1.101913,8.828857
2019-01-28 22:06:14:614,0.018890,0.064987,0.400223,0.177444,0.896133,9.266754
2019-01-28 22:06:14:614,0.018890,0.064987,0.400223,0.243240,0.844696,9.814697
2019-01-28 22:06:14:614,0.018890,0.064987,0.400223,0.268372,0.994247,9.498856
2019-01-28 22:06:14:614,0.018890,0.064987,0.400223,0.254013,1.209595,8.804932
2019-01-28 22:06:14:614,0.018890,0.064987,0.400223,-0.207809,1.094742,9.309814
2019-01-28 22:06:14:614,0.018890,0.064987,0.400223,-0.090561,0.702316,9.959473
2019-01-28 22:06:14:614,0.018890,0.064987,0.400223,0.226501,0.175903,9.753693
2019-01-28 22:06:14:614,0.018890,0.064987,0.400223,0.228882,0.019165,10.144913
2019-01-28 22:06:14:614,0.074417,0.079208,0.354645,0.228882,0.019165,10.144913
2019-01-28 22:06:14:614,0.074417,0.079208,0.354645,-0.013992,0.586273,10.246613
2019-01-28 22:06:14:614,0.074417,0.079208,0.354645,-0.277206,1.141403,9.188980
2019-01-28 22:06:14:614,0.074417,0.079208,0.354645,-0.388474,1.239502,8.294067
2019-01-28 22:06:14:614,0.074417,0.079208,0.354645,-0.396851,1.135422,9.053787
2019-01-28 22:06:14:614,0.074417,0.079208,0.354645,-0.319077,0.940399,10.477524
2019-01-28 22:06:14:614,0.074417,0.079208,0.354645,-0.037918,0.715485,11.118790
2019-01-28 22:06:14:614,0.074417,0.079208,0.354645,0.011139,0.804016,10.850800
2019-01-28 22:06:14:614,0.074417,0.079208,0.354645,-0.057068,1.299332,10.051590
2019-01-28 22:06:14:614,0.074417,0.079208,0.354645,-0.278397,1.403412,9.423477
2019-01-28 22:06:14:614,0.067581,0.081039,0.460327,-0.278397,1.403412,9.423477
2019-01-28 22:06:14:614,0.067581,0.081039,0.460327,-0.445892,1.026550,9.279907
2019-01-28 22:06:14:614,0.067581,0.081039,0.460327,-0.338211,0.778885,10.069534
2019-01-28 22:06:14:614,0.067581,0.081039,0.460327,0.072159,0.826752,10.112610
2019-01-28 22:06:14:614,0.067581,0.081039,0.460327,0.096085,1.033722,9.381607
2019-01-28 22:06:14:614,0.067581,0.081039,0.460327,-0.326263,1.384277,9.161469
2019-01-28 22:06:14:614,0.067581,0.081039,0.460327,-0.522461,1.579300,9.032257
2019-01-28 22:06:14:614,0.067581,0.081039,0.460327,-0.168335,1.290955,9.115997
2019-01-28 22:06:14:614,0.067581,0.081039,0.460327,0.287506,0.738205,10.064758
2019-01-28 22:06:14:614,0.067581,0.081039,0.460327,0.453812,0.508499,11.256378
2019-01-28 22:06:14:614,0.067581,0.081039,0.460327,0.242050,0.521667,11.715805
2019-01-28 22:06:14:614,0.045761,0.059784,0.518784,0.242050,0.521667,11.715805
2019-01-28 22:06:14:614,0.045761,0.059784,0.518784,0.026688,0.616180,11.035049
2019-01-28 22:06:14:614,0.045761,0.059784,0.518784,-0.335831,0.921265,10.873535
2019-01-28 22:06:14:614,0.045761,0.059784,0.518784,-1.001038,1.556564,11.147507
2019-01-28 22:06:14:614,0.045761,0.059784,0.518784,-0.934036,1.728836,9.436646
2019-01-28 22:06:14:614,0.045761,0.059784,0.518784,-0.247284,1.083969,7.844223
2019-01-28 22:06:14:614,0.045761,0.059784,0.518784,0.122406,0.691544,9.083694
2019-01-28 22:06:14:614,0.045761,0.059784,0.518784,0.533966,0.674805,9.522781
2019-01-28 22:06:14:614,0.045761,0.059784,0.518784,0.615326,0.729843,9.115997
2019-01-28 22:06:14:614,0.045761,0.059784,0.518784,0.336563,1.009796,9.433060
2019-01-28 22:06:15:615,-0.099487,0.101013,0.485077,0.336563,1.009796,9.433060
2019-01-28 22:06:15:615,-0.099487,0.101013,0.485077,-0.060654,1.430939,10.245407
2019-01-28 22:06:15:615,-0.099487,0.101013,0.485077,-0.297546,1.235916,10.249008
2019-01-28 22:06:15:615,-0.099487,0.101013,0.485077,0.081726,0.842300,10.226273
2019-01-28 22:06:15:615,-0.099487,0.101013,0.485077,0.389206,0.982285,10.509827
2019-01-28 22:06:15:615,-0.099487,0.101013,0.485077,0.275543,1.282578,9.900848
2019-01-28 22:06:15:615,-0.099487,0.101013,0.485077,0.145142,1.166534,8.507034
2019-01-28 22:06:15:615,-0.099487,0.101013,0.485077,0.030273,0.912888,8.547699
2019-01-28 22:06:15:615,-0.099487,0.101013,0.485077,0.153519,0.644882,9.781204
2019-01-28 22:06:15:615,-0.099487,0.101013,0.485077,0.691895,0.486969,10.536148
2019-01-28 22:06:15:615,-0.099487,0.101013,0.485077,0.672760,0.837509,10.692871
2019-01-28 22:06:15:615,0.135742,0.126678,0.342987,0.672760,0.837509,10.692871
2019-01-28 22:06:15:615,0.135742,0.126678,0.342987,0.165482,1.647491,10.152100
2019-01-28 22:06:15:615,0.135742,0.126678,0.342987,-0.136017,1.689362,9.500046
2019-01-28 22:06:15:615,0.135742,0.126678,0.342987,-0.262848,1.172516,9.954681
2019-01-28 22:06:15:615,0.135742,0.126678,0.342987,-0.024765,1.144989,10.604340
2019-01-28 22:06:15:615,0.135742,0.126678,0.342987,0.326996,1.152176,10.272934
2019-01-28 22:06:15:615,0.135742,0.126678,0.342987,0.282730,1.204819,9.696259
2019-01-28 22:06:15:615,0.135742,0.126678,0.342987,-0.102524,1.556564,9.506027
2019-01-28 22:06:15:615,0.135742,0.126678,0.342987,-0.096542,1.865234,9.074127
2019-01-28 22:06:15:615,0.135742,0.126678,0.342987,-0.496140,1.874802,8.656570
2019-01-28 22:06:15:615,-0.014877,0.344864,-0.008865,-0.496140,1.874802,8.656570
2019-01-28 22:06:15:615,-0.014877,0.344864,-0.008865,-1.330048,1.692947,8.983200
2019-01-28 22:06:15:615,-0.014877,0.344864,-0.008865,-1.066833,1.278992,9.598160
2019-01-28 22:06:15:615,-0.014877,0.344864,-0.008865,0.167877,0.674805,9.817093
2019-01-28 22:06:15:615,-0.014877,0.344864,-0.008865,0.452606,0.478592,10.677322
2019-01-28 22:06:15:615,-0.014877,0.344864,-0.008865,0.105652,0.917679,11.068542
2019-01-28 22:06:15:615,-0.014877,0.344864,-0.008865,-0.204224,1.281387,9.808716
2019-01-28 22:06:15:615,-0.014877,0.344864,-0.008865,-0.485382,1.240707,9.060974
2019-01-28 22:06:15:615,-0.014877,0.344864,-0.008865,-0.472214,1.369919,9.559875
2019-01-28 22:06:15:615,-0.014877,0.344864,-0.008865,-0.482986,1.550568,9.442627
2019-01-28 22:06:15:615,0.055420,0.107239,0.113419,-0.482986,1.550568,9.442627
2019-01-28 22:06:15:615,0.055420,0.107239,0.113419,-0.636124,1.623550,8.719986
2019-01-28 22:06:15:615,0.055420,0.107239,0.113419,-0.492554,1.280182,8.678116
2019-01-28 22:06:15:615,0.055420,0.107239,0.113419,-0.212585,1.033722,9.230850
2019-01-28 22:06:15:615,0.055420,0.107239,0.113419,-0.276001,0.894943,9.523972
2019-01-28 22:06:15:615,0.055420,0.107239,0.113419,-0.162338,0.587463,9.413910
2019-01-28 22:06:15:615,0.055420,0.107239,0.113419,0.190598,0.265640,9.723785
2019-01-28 22:06:15:615,0.055420,0.107239,0.113419,0.392792,0.175903,10.149704
2019-01-28 22:06:15:615,0.055420,0.107239,0.113419,0.397583,0.129242,10.146103
2019-01-28 22:06:15:615,0.055420,0.107239,0.113419,-0.107315,0.144791,10.253784
2019-01-28 22:06:15:615,0.055420,0.107239,0.113419,-0.106125,0.065826,10.104248
2019-01-28 22:06:15:615,0.153946,0.089417,-0.161880,-0.106125,0.065826,10.104248
2019-01-28 22:06:15:615,0.153946,0.089417,-0.161880,0.197784,-0.117233,9.922379
2019-01-28 22:06:15:615,0.153946,0.089417,-0.161880,0.233673,-0.387619,9.915207
2019-01-28 22:06:15:615,0.153946,0.089417,-0.161880,0.227692,-0.534775,10.253784
2019-01-28 22:06:15:615,0.153946,0.089417,-0.161880,0.202576,-0.169876,9.937943
2019-01-28 22:06:15:615,0.153946,0.089417,-0.161880,-0.075012,0.668823,9.837448
2019-01-28 22:06:15:615,0.153946,0.089417,-0.161880,-0.167130,1.018173,10.249008
2019-01-28 22:06:15:615,0.153946,0.089417,-0.161880,0.374847,0.809998,9.686691
2019-01-28 22:06:15:615,0.153946,0.089417,-0.161880,0.236069,0.491745,8.548904
